"trial","ID","DATE","COND","dots_rt","screen_id","deck","dots_direction","dots_coherence","dots_accuracy","trial_index","Choice","Number_click_of_click_made","counterclick_speed","Bar_progress","Success","Left_click_number","Right_click_number","confidence_rt","confidence_rating","effort_rt","effort_rating","reward_rt","reward_rating","reward_cond","reward_context","reward_real","choice_rt","button_choice","dots_coherence_grouped","dots_coherence_grouped_n","diff_tapping","new_effort","reward_condi","R_P_E","clicks_binned","n_choice","n_choice1","zconf","zeff","zrew"
1,"1","2021.04.06","1CER",1495.00000000047,"tapping",1,"left",0.12,0,826,"right",9,65,1,"true",7,7,2153,28,2974,60,3055.00000000047,60,"high","3","5",598,"no box","low",10,"easy",40,"exp 3 got 5","POSITIVE",1,"0",0,-1.74900985062664,-0.874742026074391,-1.12540804827633
1,"10","2021.04.12","1CER",1128.00000000047,"tapping",1,"left",0.12,100,1983,"left",8,65,1,"true",7,7,1336.00000000047,98,1565.99999999953,38,2567,87,"high","3","5",990,"box","low",10,"easy",62,"exp 3 got 5","POSITIVE",1,"1",100,1.23212490843691,-1.32574124138706,1.44341854111622
1,"11","2021.04.09","2CRE",1744,"tapping",1,"left",0.12,0,1499,"right",9,65,1,"true",7,7,1847,56,6122,46,5742.00000000047,75,"high","3","5",3470,"no box","low",10,"easy",54,"exp 3 got 5","POSITIVE",2,"0",0,0.146006815284125,-0.262531893117468,0.366377842330498
1,"12","2021.04.09","3ECR",1193,"tapping",1,"left",0.12,100,1477,"left",8,65,1,"true",7,7,2294,79,2575,95,2278,75,"high","3","5",1142,"no box","low",10,"easy",5,"exp 3 got 5","POSITIVE",1,"0",0,1.26894868353957,-1.23068032822101,0.938230263628714
1,"13","2021.04.12","3ECR",1296,"tapping",1,"left",0.12,0,1215,"right",8,65,1,"true",7,7,2710.00000000047,78,2384,0,2406,72,"high","3","5",894,"no box","low",10,"easy",100,"exp 3 got 5","POSITIVE",1,"0",0,1.26111521062536,0.961864118300619,1.37815701498067
1,"14","2021.04.12","2CRE",1152,"tapping",1,"left",0.12,100,1177,"left",8,65,1,"true",7,7,1296,31,2414,32,2462,72,"high","3","5",694,"no box","low",10,"easy",68,"exp 3 got 5","POSITIVE",1,"0",0,-1.26119745158633,0.288694227664334,0.169201805906912
1,"16","2021.04.13","4ERC",1744,"tapping",1,"left",0.12,0,1033,"right",9,65,1,"true",7,7,2902,13,2927.99999999953,90,5150,83,"high","3","5",687.000000000466,"no box","low",10,"easy",10,"exp 3 got 5","POSITIVE",1,"0",0,-1.36862486133143,-1.02087450100573,0.658048357282288
1,"17","2021.04.13","4ERC",1608,"tapping",1,"left",0.12,100,518,"left",9,65,1,"true",7,7,4151,38,2784,63,7223,60,"high","3","5",1583.00000000023,"box","low",10,"easy",37,"exp 3 got 5","POSITIVE",1,"1",100,-1.65636107934682,-0.566416884055978,-0.818982061708715
1,"18","2021.04.13","4ERC",1119,"tapping",1,"left",0.12,100,1430,"left",8,65,1,"true",7,7,1671,89,2665,60,1431.00000000093,55,"high","3","5",535,"box","low",10,"easy",40,"exp 3 got 5","POSITIVE",1,"1",100,0.685397546359445,-0.115067657597848,-1.00731894688629
1,"19","2021.04.13","5RCE",959.999999999534,"tapping",1,"left",0.12,100,1503,"left",8,65,1,"true",7,7,2166,42,2158.99999999953,60,6623,30,"high","3","5",959,"no box","low",10,"easy",40,"exp 3 got 5","POSITIVE",1,"0",0,-0.799413979034243,-0.385044986972137,-1.12880419493328
1,"2","2021.04.06","1CER",1072.00000000047,"tapping",1,"left",0.12,0,962,"right",8,65,1,"true",7,7,1512,67,3375,69,1575,59,"high","3","5",671,"box","low",10,"easy",31,"exp 3 got 5","POSITIVE",1,"1",100,0.687485068399657,-1.18907670007082,0.159478860340807
1,"20","2021.04.13","5RCE",1192,"tapping",1,"left",0.12,100,1784,"left",8,65,1,"true",7,7,2438,52,2647,91,2285,78,"high","3","5",2311,"box","low",10,"easy",9,"exp 3 got 5","POSITIVE",1,"1",100,-0.204774849280276,-2.57370400076872,0.825350462906166
1,"21","2021.04.14","6REC",1080,"tapping",1,"left",0.12,100,1006,"left",8,65,1,"true",7,7,5181.99999999953,70,2350,75,2549.99999999953,74,"high","3","5",2630,"no box","low",10,"easy",25,"exp 3 got 5","POSITIVE",1,"0",0,0.34603492847565,-2.07038915686821,0.477338140306727
1,"22","2021.04.14","6REC",1648,"tapping",1,"left",0.12,100,1197,"left",9,65,1,"true",7,7,5430,46,3622,40,2838.99999999953,73,"high","3","5",1814,"no box","low",10,"easy",60,"exp 3 got 5","POSITIVE",1,"0",0,-0.667147215818248,0.317554600368956,-0.148087148387545
1,"23","2021.04.14","6REC",1239,"tapping",1,"left",0.12,100,1222,"left",8,65,1,"true",7,7,2159,28,2391,40,1721,48,"high","3","5",695,"box","low",10,"easy",60,"exp 3 got 5","POSITIVE",1,"1",100,-1.42713752962527,0.150497422618618,-0.799326404357202
1,"24","2021.04.15","5RCE",1111,"tapping",1,"left",0.12,0,545,"right",8,65,1,"true",7,7,1950,73,2063.00000000047,66,2616,51,"high","3","5",655,"no box","low",10,"easy",34,"exp 3 got 5","POSITIVE",4,"0",0,0.594957170600181,-1.37659188204885,-0.193127549492513
1,"25","2021.04.15","5RCE",1120,"tapping",1,"left",0.12,0,1331,"right",8,65,1,"true",7,7,3479,54,2391,8,3896,60,"high","3","5",1191,"no box","low",10,"easy",92,"exp 3 got 5","POSITIVE",1,"0",0,-0.0203799033092188,1.07996964868731,-0.354736493091102
1,"27","2021.04.15","6REC",1072,"tapping",1,"left",0.12,100,1521,"left",8,65,1,"true",7,7,1839,34,1990,57,1908,65,"high","3","5",1767,"no box","low",10,"easy",43,"exp 3 got 5","POSITIVE",1,"0",0,-1.24433399532865,-1.47501913238622,0.917805610249173
1,"3","2021.04.07","2CRE",1631,"tapping",1,"left",0.12,0,1396,"right",9,65,1,"true",7,7,1576,96,1374,67,2510,95,"high","3","5",1655,"box","low",10,"easy",33,"exp 3 got 5","POSITIVE",1,"1",100,0.758659009711754,-1.32958899079979,0.768974291418316
1,"31","2021.04.19","2CRE",1041.00000000047,"tapping",1,"left",0.12,100,1755,"left",8,65,1,"true",7,7,2688,0,2702.00000000047,63,2550,64,"high","3","5",583,"no box","low",10,"easy",37,"exp 3 got 5","POSITIVE",1,"0",0,-2.3122053062207,-0.0864914611435712,-0.380991627496112
1,"32","2021.04.20","3ECR",870.999999999534,"tapping",1,"left",0.12,100,798,"left",8,65,1,"true",7,7,1647.00000000047,4,2376,83,2191,89,"high","3","5",599,"no box","low",10,"easy",17,"exp 3 got 5","POSITIVE",1,"0",0,-1.33809769378808,-1.75937918699834,0.753853772648139
1,"33","2021.04.20","4ERC",1288,"tapping",1,"left",0.12,0,2001,"right",8,65,1,"true",7,7,2350,99,2103,94,2350,99,"high","3","5",774.000000000931,"no box","low",10,"easy",6,"exp 3 got 5","POSITIVE",1,"0",0,1.07588768125708,-1.59559476884485,0.839246628189933
1,"34","2021.04.20","6REC",1520,"tapping",1,"left",0.12,0,1308,"right",9,65,1,"true",7,7,1671,46,1230,63,1799,56,"high","3","5",935,"no box","low",10,"easy",37,"exp 3 got 5","POSITIVE",1,"0",0,-0.469685504172597,-0.955391256223271,-0.0395603350149892
1,"35","2021.04.21","1CER",999.999999999767,"tapping",1,"left",0.12,100,473,"left",8,65,1,"true",7,7,1505,70,1590.99999999977,26,2807.00000000023,91,"high","3","5",2094,"no box","low",10,"easy",74,"exp 3 got 5","POSITIVE",1,"0",0,0.2499297626818,0.89718760893705,1.13312939753933
1,"36","2021.04.21","4ERC",1072,"tapping",1,"left",0.12,100,1114,"left",8,65,1,"true",7,7,1998,63,2312,55,2175,68,"high","3","5",1199,"box","low",10,"easy",45,"exp 3 got 5","POSITIVE",1,"1",100,0.779307682699005,-1.0839037445867,1.00638653173553
1,"37","2021.04.21","5RCE",1448.00000000012,"tapping",1,"left",0.12,0,311,"right",9,65,1,"true",7,7,1719.00000000012,16,2333.00000000012,74,2184,79,"high","3","5",942.999999999884,"no box","low",10,"easy",26,"exp 3 got 5","POSITIVE",2,"0",0,-0.993847084353371,-1.90384770556094,1.58217997059476
1,"38","2021.04.21","6REC",944,"tapping",1,"left",0.12,100,1904,"left",8,65,1,"true",7,7,2478.99999999907,59,3109.99999999953,37,1808,72,"high","3","5",1631,"box","low",10,"easy",63,"exp 3 got 5","POSITIVE",1,"1",100,0.010104445385265,-0.176430182088818,-0.0979199858975984
1,"39","2021.04.22","2CRE",1255.99999999953,"tapping",1,"left",0.12,0,1287,"right",8,65,1,"true",7,7,2704,54,3318,54,2390.99999999953,47,"high","3","5",974.999999999534,"box","low",10,"easy",46,"exp 3 got 5","POSITIVE",1,"1",100,0.724441098672435,0.88965337275752,-3.20338195869983
1,"4","2021.04.07","2CRE",1872,"tapping",1,"left",0.12,100,437,"left",9,65,1,"true",7,7,4295.99999999977,87,4118,57,6119,61,"high","3","5",1911,"box","low",10,"easy",43,"exp 3 got 5","POSITIVE",2,"1",100,0.895489490787004,0.232072222295552,0.121933988030638
1,"41","2021.04.22","4ERC",1144,"tapping",1,"left",0.12,0,491,"right",8,65,1,"true",7,7,3214,24,3623,17,4214,78,"high","3","5",1974,"box","low",10,"easy",83,"exp 3 got 5","POSITIVE",1,"1",100,-4.66796418523618,2.07050137597153,0.594919843819112
1,"43","2021.04.26","1CER",1055.99999999907,"tapping",1,"left",0.12,0,1522,"right",8,65,1,"true",7,7,2328,69,3293.99999999907,75,4510,56,"high","3","5",821.999999999069,"no box","low",10,"easy",25,"exp 3 got 5","POSITIVE",1,"0",0,0.50041198218365,-1.42034113384595,0.560164100193899
1,"44","2021.04.26","3ECR",1119,"tapping",1,"left",0.12,0,373,"right",8,65,1,"true",7,7,3771,85,2536.99999999977,81,3831.00000000023,65,"high","3","5",9062,"no box","low",10,"easy",19,"exp 3 got 5","POSITIVE",1,"0",0,0.465527194947432,-1.67518074494816,-0.162938346526128
1,"45","2021.04.26","6REC",1096,"tapping",1,"left",0.12,0,1775,"right",8,65,1,"true",7,7,3974,100,5478,67,1823,61,"high","3","5",1007,"box","low",10,"easy",33,"exp 3 got 5","POSITIVE",1,"1",100,1.71240043809274,-1.0635790370414,0.365254940005331
1,"46","2021.04.29","4ERC",1026,"tapping",1,"left",0.12,100,229,"left",8,65,1,"true",7,7,2318,71,2973.99999999977,93,4095,98,"high","3","5",2119,"box","low",10,"easy",7,"exp 3 got 5","POSITIVE",1,"1",100,0.29072451735111,-2.12684992672741,1.35160414273696
1,"47","2021.04.29","6REC",1168,"tapping",1,"left",0.12,0,1783,"right",8,65,1,"true",7,7,1686.00000000093,94,2390,95,2014,98,"high","3","5",1807.00000000093,"no box","low",10,"easy",5,"exp 3 got 5","POSITIVE",1,"0",0,0.798524723865912,-0.825425444573417,0.58262964574492
1,"48","2021.04.29","1CER",2983,"tapping",1,"left",0.12,100,166,"left",9,65,1,"true",7,7,3393,100,3607,54,2999,19,"high","3","5",1487,"no box","low",10,"easy",46,"exp 3 got 5","POSITIVE",2,"0",0,2.34009444472066,-0.95495506379222,-1.78266672918836
1,"49","2021.04.29","5RCE",1672,"tapping",1,"left",0.12,100,962,"left",9,65,1,"true",7,7,2021.00000000047,73,2559,98,3640,42,"high","3","5",951,"box","low",10,"easy",2,"exp 3 got 5","POSITIVE",1,"1",100,0.341575449401034,-1.71452858326871,-0.92289096144616
1,"5","2021.04.08","1CER",1648,"tapping",1,"left",0.12,100,1241,"left",9,65,1,"true",7,7,1737,64,2095,40,1655,63,"high","3","5",1094,"no box","low",10,"easy",60,"exp 3 got 5","POSITIVE",2,"0",0,0.168332654470419,-0.440185072870253,-0.734344290631047
1,"50","2021.04.30","4ERC",944.000000000466,"tapping",1,"left",0.12,100,988,"left",8,65,1,"true",7,7,2054.99999999953,38,2408,39,2343,100,"high","3","5",1471,"box","low",10,"easy",61,"exp 3 got 5","POSITIVE",1,"1",100,0.890925921280068,-0.761505094994635,1.03900315041971
1,"51","2021.04.30","3ECR",1703.99999999953,"tapping",1,"left",0.12,0,1232,"right",9,65,1,"true",7,7,2359.00000000047,40,4623.00000000047,69,1983,42,"high","3","5",2183,"no box","low",10,"easy",31,"exp 3 got 5","POSITIVE",1,"0",0,-0.584217965552488,-1.617205273373,-1.41278112076917
1,"52","2021.04.30","2CRE",1191,"tapping",1,"left",0.12,100,1811,"left",8,65,1,"true",7,7,3032,25,2806,27,4479,76,"high","3","5",1838,"no box","low",10,"easy",73,"exp 3 got 5","POSITIVE",1,"0",0,-1.27701431159261,0.516181831402909,0.103697252759979
1,"53","2021.05.14","1CER",1176,"tapping",1,"left",0.12,0,536,"right",8,65,1,"true",7,7,3335.99999999953,36,9030.99999999953,44,10207,71,"high","3","5",5439,"box","low",10,"easy",56,"exp 3 got 5","POSITIVE",1,"1",100,-0.71264303732424,-0.141199074857101,0.908591037313541
1,"54","2021.05.14","6REC",1168.00000000023,"tapping",1,"left",0.12,0,366,"right",8,65,1,"true",7,7,2063.00000000023,44,1935,70,3232.00000000023,46,"high","3","5",711.000000000233,"no box","low",10,"easy",30,"exp 3 got 5","POSITIVE",1,"0",0,-0.554611200656053,-1.55093159933913,-0.143234152859365
1,"56","2021.05.14","2CRE",1184,"tapping",1,"left",0.12,100,346,"left",8,65,1,"true",7,7,2962,75,4279,79,2839.00000000023,73,"high","3","5",1271,"box","low",10,"easy",21,"exp 3 got 5","POSITIVE",1,"1",100,0.635600727851323,-1.34726838245886,0.773158934652655
1,"57","2021.05.17","3ECR",1961,"tapping",1,"left",0.12,0,1242,"right",9,65,1,"true",7,7,2702,93,2798,92,2814,26,"high","3","5",742,"no box","low",10,"easy",8,"exp 3 got 5","POSITIVE",2,"0",0,0.392789732202655,-0.770239524824397,-0.849550980390049
1,"59","2021.05.17","5RCE",1041.99999999953,"tapping",1,"left",0.12,100,1376,"left",8,65,1,"true",7,7,2295,37,1983,37,1628,56,"high","3","5",887,"no box","low",10,"easy",63,"exp 3 got 5","POSITIVE",1,"0",0,-0.595072805216289,0.444898394552454,0.671899713712007
1,"6","2021.04.08","2CRE",1080,"tapping",1,"left",0.12,0,1331,"right",8,65,1,"true",7,7,1736.00000000093,87,1478.99999999907,56,1935.00000000047,70,"high","3","5",1063,"no box","low",10,"easy",44,"exp 3 got 5","POSITIVE",1,"0",0,1.24503008417493,-1.03875371854521,0.829288209222822
1,"60","2021.05.17","6REC",1152,"tapping",1,"left",0.12,100,2100,"left",8,65,1,"true",7,7,1158,18,2702.00000000093,41,1280,79,"high","3","5",494,"no box","low",10,"easy",59,"exp 3 got 5","POSITIVE",1,"0",0,-2.48803372697666,0.284460367975315,1.62181727168404
1,"7","2021.04.08","3ECR",1215,"tapping",1,"left",0.12,100,2037,"left",8,65,1,"true",7,7,2567,42,6752.00000000093,48,1695,44,"high","3","5",799,"no box","low",10,"easy",52,"exp 3 got 5","POSITIVE",1,"0",0,0.0417910130060156,0.418851119519737,0.141569262608198
1,"8","2021.04.09","3ECR",1112,"tapping",1,"left",0.12,100,375,"left",8,65,1,"true",7,7,1719,39,3385,65,4006.99999999977,74,"high","3","5",1734,"no box","low",10,"easy",35,"exp 3 got 5","POSITIVE",1,"0",0,-0.199027144675511,-0.765663942679982,1.05670207902799
1,"9","2021.04.09","3ECR",1479,"tapping",1,"left",0.12,100,1739,"left",9,65,1,"true",7,7,1470,92,4792,60,1342,82,"high","3","5",646,"box","low",10,"easy",40,"exp 3 got 5","POSITIVE",1,"1",100,0.83413194204596,-0.442861140205329,0.431183344153907
10,"1","2021.04.06","1CER",1264.00000000047,"tapping",1,"left",0.08,100,1070,"left",9,105,1,"true",7,7,2848,78,2334.00000000047,61,3053.99999999953,72,"high","3","5",861.999999999534,"box","low",10,"easy",39,"exp 3 got 5","POSITIVE",1,"1",100,0.778884571100173,-0.932610865766753,-0.177936910530727
10,"10","2021.04.12","1CER",1304,"tapping",1,"left",0.08,0,1088,"right",9,105,1,"true",7,7,1615,74,1638,20,1846,73,"high","3","5",3422,"no box","low",10,"easy",80,"exp 3 got 5","POSITIVE",2,"0",0,-0.0226892497150115,0.723001432937868,0.145216653227449
10,"11","2021.04.09","2CRE",1760,"tapping",1,"left",0.08,0,1626,"right",10,105,1,"true",7,7,2575.00000000047,41,3303,47,3103,79,"high","3","5",3486,"no box","low",10,"easy",53,"exp 3 got 5","POSITIVE",5,"0",0,-0.460659133239636,-0.324556515711342,0.771623594890839
10,"12","2021.04.09","3ECR",1304,"tapping",1,"left",0.08,100,1883,"left",9,105,1,"true",7,7,2614,28,1713,75,1606,33,"high","3","5",711.000000000931,"no box","low",10,"easy",25,"exp 3 got 5","POSITIVE",1,"0",0,-0.799733383562986,-0.622015839151909,-0.708098312172614
10,"13","2021.04.12","3ECR",2368,"tapping",1,"left",0.08,100,2001,"left",11,105,1,"true",7,7,1790,56,2784,30,1653.99999999907,64,"high","3","5",758,"no box","low",10,"easy",70,"exp 3 got 5","POSITIVE",5,"0",0,-0.672505999330314,-1.73571513699007,0.112649356007116
10,"14","2021.04.12","2CRE",1871.99999999953,"tapping",1,"left",0.08,100,1936,"left",10,105,1,"true",7,7,2127,35,2862,35,1358,63,"high","3","5",1558,"no box","low",10,"easy",65,"exp 3 got 5","POSITIVE",5,"0",0,-1.04915254884556,0.132482967489797,-1.10384035282128
10,"16","2021.04.13","4ERC",3064,"tapping",1,"left",0.08,100,1177,"left",11,105,1,"true",7,7,4262,20,2544,29,3893.99999999953,66,"high","3","5",1503,"no box","low",10,"easy",71,"exp 3 got 5","POSITIVE",5,"0",0,-1.16765163831311,1.18557699188007,-0.731870428726502
10,"17","2021.04.13","4ERC",1848,"tapping",1,"left",0.08,100,897,"left",10,105,1,"true",7,7,1663,47,2536.00000000047,47,1311,52,"high","3","5",1311.00000000047,"box","low",10,"easy",53,"exp 3 got 5","POSITIVE",4,"1",100,-1.12084584316702,0.0933373194945516,-1.37908112577988
10,"18","2021.04.13","4ERC",1632,"tapping",1,"left",0.08,100,1611,"left",10,105,1,"true",7,7,5383,47,4079.99999999907,54,3799,55,"high","3","5",1031,"no box","low",10,"easy",46,"exp 3 got 5","POSITIVE",4,"0",0,-1.35221503875132,0.0960977183843194,-1.00731894688629
10,"19","2021.04.13","5RCE",1338,"tapping",1,"left",0.08,100,1882,"left",9,105,1,"true",7,7,1454,43,1287.00000000093,48,2987,41,"high","3","5",566,"no box","low",10,"easy",52,"exp 3 got 5","POSITIVE",3,"0",0,-0.766330474956564,0.133420669444826,-0.749135245522067
10,"2","2021.04.06","1CER",1232,"tapping",1,"left",0.08,100,1784,"left",9,105,1,"true",7,7,2280,80,3039,28,1951,65,"high","3","5",1038.99999999953,"box","low",10,"easy",72,"exp 3 got 5","POSITIVE",2,"1",100,1.87167809871807,1.20856976072772,0.939698515546602
10,"20","2021.04.13","5RCE",1912,"tapping",1,"left",0.08,100,1883,"left",10,105,1,"true",7,7,2894,54,3087,24,1960,81,"high","3","5",1439.00000000093,"no box","low",10,"easy",76,"exp 3 got 5","POSITIVE",3,"0",0,-0.0369915856764369,1.06229921067757,1.05811028997297
10,"21","2021.04.14","6REC",1624,"tapping",1,"left",0.08,100,1927,"left",10,105,1,"true",7,7,4238,37,2358,34,4655,77,"high","3","5",5155,"no box","low",10,"easy",66,"exp 3 got 5","POSITIVE",5,"0",0,-1.16894386286053,-0.111953270919334,0.58992895472797
10,"22","2021.04.14","6REC",1880,"tapping",1,"left",0.08,100,619,"left",10,105,1,"true",7,7,2902.00000000023,54,5110.00000000023,36,2088,87,"high","3","5",2022,"no box","low",10,"easy",64,"exp 3 got 5","POSITIVE",5,"0",0,0.0124447574726843,0.570631109292439,1.13339140340703
10,"23","2021.04.14","6REC",1663.99999999977,"tapping",1,"left",0.08,100,635,"left",10,105,1,"true",7,7,2111,80,3527,47,3297,74,"high","3","5",1111,"no box","low",10,"easy",53,"exp 3 got 5","POSITIVE",4,"0",0,0.88135208828642,-0.201526032744832,1.2458386939113
10,"25","2021.04.15","5RCE",1272,"tapping",1,"left",0.08,0,861,"right",9,105,1,"true",7,7,4063.00000000047,61,1807,4,2273,45,"high","3","5",910.999999999069,"no box","low",10,"easy",96,"exp 3 got 5","POSITIVE",2,"0",0,0.345472231903047,1.24741496720635,-1.61938004469391
10,"27","2021.04.15","6REC",1328,"tapping",1,"left",0.08,0,1575,"right",9,105,1,"true",7,7,2895,75,4454,34,2536,66,"high","3","5",935,"box","low",10,"easy",66,"exp 3 got 5","POSITIVE",1,"1",100,0.695740229478411,-0.0603182427018312,1.00893941523868
10,"3","2021.04.07","2CRE",1848,"tapping",1,"left",0.08,100,1080,"left",10,105,1,"true",7,7,2497.00000000047,40,3694,18,2839,27,"high","3","5",2527,"no box","low",10,"easy",82,"exp 3 got 5","POSITIVE",3,"0",0,-1.17961653667882,1.21519310507777,-1.55713249212059
10,"31","2021.04.19","2CRE",1097,"tapping",1,"left",0.08,0,1728,"right",9,105,1,"true",7,7,4351,4,1974,79,2062.99999999953,66,"high","3","5",606.999999999534,"no box","low",10,"easy",21,"exp 3 got 5","POSITIVE",3,"0",0,-2.1887745450245,-0.625221730067031,-0.191679017560156
10,"32","2021.04.20","3ECR",1112,"tapping",1,"left",0.08,100,1918,"left",9,105,1,"true",7,7,2103,66,2473,47,1439,89,"high","3","5",807,"no box","low",10,"easy",53,"exp 3 got 5","POSITIVE",2,"0",0,0.494052633662267,-0.106733375336494,0.753853772648139
10,"33","2021.04.20","4ERC",1871.99999999988,"tapping",1,"left",0.08,100,402,"left",10,105,1,"true",7,7,3790,74,2712,55,3183,91,"high","3","5",1655,"box","low",10,"easy",45,"exp 3 got 5","POSITIVE",3,"1",100,-0.965751546755136,-0.260908943902021,0.310854527264574
10,"34","2021.04.20","6REC",1224.00000000093,"tapping",1,"left",0.08,0,2193,"right",9,105,1,"true",7,7,1303.00000000093,58,2222,46,1806.99999999907,63,"high","3","5",703,"no box","low",10,"easy",54,"exp 3 got 5","POSITIVE",1,"0",0,0.436238927069766,0.102827677473927,0.500609177658816
10,"35","2021.04.21","1CER",1271.99999999977,"tapping",1,"left",0.08,0,220,"right",9,105,1,"true",7,7,2536.99999999977,31,2143,69,3039.00000000023,38,"high","3","5",1150,"no box","low",10,"easy",31,"exp 3 got 5","POSITIVE",2,"0",0,-1.30341856314931,-1.12862491140653,-1.0393637725112
10,"36","2021.04.21","4ERC",1392,"tapping",1,"left",0.08,100,1656,"left",9,105,1,"true",7,7,1526,42,2224.00000000093,61,2486,72,"high","3","5",679,"box","low",10,"easy",39,"exp 3 got 5","POSITIVE",1,"1",100,-0.946228360094085,-1.62986159692868,1.214536721714
10,"37","2021.04.21","5RCE",1936,"tapping",1,"left",0.08,0,799,"right",10,105,1,"true",7,7,2295,4,2415,57,1969,78,"high","3","5",671,"no box","low",10,"easy",43,"exp 3 got 5","POSITIVE",5,"0",0,-1.41464522457981,-0.915113185619585,1.32761333581475
10,"38","2021.04.21","6REC",1248,"tapping",1,"left",0.08,100,1262,"left",9,105,1,"true",7,7,2782.99999999953,1,2228.99999999953,64,5896,100,"high","3","5",807,"no box","low",10,"easy",36,"exp 3 got 5","POSITIVE",2,"0",0,-2.39423537962141,-1.43001305482516,2.71414114757191
10,"39","2021.04.22","2CRE",1600,"tapping",1,"left",0.08,0,1622,"right",10,105,1,"true",7,7,2695.99999999907,43,2894,96,1999,52,"high","3","5",975,"no box","low",10,"easy",4,"exp 3 got 5","POSITIVE",5,"0",0,-0.225369607158216,-1.28976893952227,-0.528288831424236
10,"41","2021.04.22","4ERC",1816,"tapping",1,"left",0.08,100,1096,"left",10,105,1,"true",7,7,2142,86,2527,72,3590,70,"high","3","5",1062,"no box","low",10,"easy",28,"exp 3 got 5","POSITIVE",5,"0",0,0.481156087963968,-0.330998519287966,-0.0672889589956984
10,"43","2021.04.26","1CER",1214.99999999907,"tapping",1,"left",0.08,0,1685,"right",9,105,1,"true",7,7,1295.99999999907,18,3286,40,2654,58,"high","3","5",822,"no box","low",10,"easy",60,"exp 3 got 5","POSITIVE",2,"0",0,-1.20458579897316,0.035271629343098,0.652022873240745
10,"44","2021.04.26","3ECR",2152,"tapping",1,"left",0.08,0,1539,"right",11,105,1,"true",7,7,3654,4,3111,56,1743,84,"high","3","5",702,"no box","low",10,"easy",44,"exp 3 got 5","POSITIVE",5,"0",0,-3.32202337144623,0.0236546703394476,1.54734457749987
10,"45","2021.04.26","6REC",2097,"tapping",1,"left",0.08,100,1152,"left",10,105,1,"true",7,7,2479,44,1806,57,2232,59,"high","3","5",1134,"no box","low",10,"easy",43,"exp 3 got 5","POSITIVE",5,"0",0,-0.696322073878469,-0.495145198757088,0.246003327149381
10,"46","2021.04.29","4ERC",1184.00000000023,"tapping",1,"left",0.08,100,373,"left",9,105,1,"true",7,7,2974,22,3177,72,2855,88,"high","3","5",927,"box","low",10,"easy",28,"exp 3 got 5","POSITIVE",2,"1",100,-1.64908843246396,-1.08421558855932,0.967966280686374
10,"47","2021.04.29","6REC",1656,"tapping",1,"left",0.08,100,951,"left",10,105,1,"true",7,7,2127,88,2454,93,4095,95,"high","3","5",3926.99999999953,"box","low",10,"easy",7,"exp 3 got 5","POSITIVE",4,"1",100,0.531305992742156,-0.741804980065781,0.207872888682861
10,"48","2021.04.29","1CER",1224,"tapping",1,"left",0.08,100,1439,"left",9,105,1,"true",7,7,1496,81,1255,33,1887,68,"high","3","5",1175.00000000047,"no box","low",10,"easy",67,"exp 3 got 5","POSITIVE",2,"0",0,0.720152804596666,0.0816492788612987,0.572557365623666
10,"49","2021.04.29","5RCE",1736.99999999953,"tapping",1,"left",0.08,0,619,"right",10,105,1,"true",7,7,2167,34,4463.00000000047,44,3006,96,"high","3","5",1151,"box","low",10,"easy",56,"exp 3 got 5","POSITIVE",3,"1",100,-1.37510528856808,0.600548019464596,1.17954372966473
10,"5","2021.04.08","1CER",1767,"tapping",1,"left",0.08,0,1873,"right",10,105,1,"true",7,7,1904,82,1998,44,2846,89,"high","3","5",1646.00000000093,"no box","low",10,"easy",56,"exp 3 got 5","POSITIVE",4,"0",0,0.895010666060064,-0.632578158378422,0.730320486298822
10,"50","2021.04.30","4ERC",1368,"tapping",1,"left",0.08,100,428,"left",9,105,1,"true",7,7,1847,42,2624,38,2143,89,"high","3","5",1151,"box","low",10,"easy",62,"exp 3 got 5","POSITIVE",2,"1",100,1.1543903960555,-0.687116422475879,0.715258598145806
10,"51","2021.04.30","3ECR",1865,"tapping",1,"left",0.08,0,391,"right",10,105,1,"true",7,7,2759,73,3902.99999999953,40,3271,66,"high","3","5",871,"no box","low",10,"easy",60,"exp 3 got 5","POSITIVE",4,"0",0,0.799929214371868,0.0433545166862769,0.317785618488728
10,"52","2021.04.30","2CRE",1312,"tapping",1,"left",0.08,100,1603,"left",9,105,1,"true",7,7,1448,84,8207,24,2543,67,"high","3","5",2511,"box","low",10,"easy",76,"exp 3 got 5","POSITIVE",1,"1",100,0.740444640419897,0.623794914260945,-0.404490311279506
10,"53","2021.05.14","1CER",1368,"tapping",1,"left",0.08,100,1683,"left",9,105,1,"true",7,7,3951.99999999907,59,3663.00000000093,46,3747,76,"high","3","5",726,"box","low",10,"easy",54,"exp 3 got 5","POSITIVE",2,"1",100,0.14802322975329,-0.250025678893305,1.19297571222547
10,"54","2021.05.14","6REC",1704,"tapping",1,"left",0.08,0,1621,"right",10,105,1,"true",7,7,1791,36,1735,66,2552,36,"high","3","5",903.000000000931,"no box","low",10,"easy",34,"exp 3 got 5","POSITIVE",4,"0",0,-1.16056587634992,-1.2570189655693,-0.646580586256662
10,"56","2021.05.14","2CRE",1647,"tapping",1,"left",0.08,100,852,"left",10,105,1,"true",7,7,2402,76,5142.00000000047,47,3855.00000000047,78,"high","3","5",1478.00000000047,"box","low",10,"easy",53,"exp 3 got 5","POSITIVE",4,"1",100,0.685167468962275,0.367436831579688,0.996448450161379
10,"57","2021.05.17","3ECR",1280.00000000093,"tapping",1,"left",0.08,100,1450,"left",9,105,1,"true",7,7,2734.00000000047,78,2038.99999999953,90,1237.99999999953,70,"high","3","5",510.000000000466,"no box","low",10,"easy",10,"exp 3 got 5","POSITIVE",2,"0",0,-0.177028494981348,-0.718968414405371,0.47956294012722
10,"59","2021.05.17","5RCE",1288,"tapping",1,"left",0.08,0,247,"right",9,105,1,"true",7,7,2119,55,3558.99999999977,40,3656.99999999977,64,"high","3","5",1023,"no box","low",10,"easy",60,"exp 3 got 5","POSITIVE",2,"0",0,0.178307013837372,0.205759279899399,1.23437952636823
10,"6","2021.04.08","2CRE",1112,"tapping",1,"left",0.08,100,1051,"left",9,105,1,"true",7,7,3448,68,3839,61,2575,67,"high","3","5",5046.99999999953,"no box","low",10,"easy",39,"exp 3 got 5","POSITIVE",2,"0",0,0.197744125156727,-1.32402765429398,0.618004589038664
10,"60","2021.05.17","6REC",1864,"tapping",1,"left",0.08,100,583,"left",10,105,1,"true",7,7,1327,41,2567,77,1577,76,"high","3","5",775,"no box","low",10,"easy",23,"exp 3 got 5","POSITIVE",5,"0",0,-1.04835978084475,-1.57639808492834,0.570721023595337
10,"7","2021.04.08","3ECR",1343,"tapping",1,"left",0.08,100,1748,"left",9,105,1,"true",7,7,2447,35,3560,48,1758.00000000093,38,"high","3","5",711,"no box","low",10,"easy",52,"exp 3 got 5","POSITIVE",2,"0",0,-0.472559916298791,0.418851119519737,-0.473392240124244
10,"8","2021.04.09","3ECR",1616,"tapping",1,"left",0.08,100,1838,"left",10,105,1,"true",7,7,1615,34,4623,60,2215,70,"high","3","5",735,"no box","low",10,"easy",40,"exp 3 got 5","POSITIVE",4,"0",0,-0.497567861688777,-0.523023960844776,0.798537738762467
10,"9","2021.04.09","3ECR",1744,"tapping",1,"left",0.08,0,1423,"right",10,105,1,"true",7,7,7794,0,12438,14,3630.00000000047,77,"high","3","5",1942,"no box","low",10,"easy",86,"exp 3 got 5","POSITIVE",4,"0",0,-1.6613497192163,0.823638942998696,-0.215591672076955
100,"1","2021.04.06","1CER",3240,"tapping",5,"right",0.08,0,781,"left",20,255,1,"true",7,7,3176,19,2287,32,3341.99999999953,59,"high","3","5",886.000000000466,"no box","low",10,"hard",68,"exp 3 got 5","POSITIVE",7,"0",0,-2.20403084653746,0.745585485311729,-1.2043639764218
100,"10","2021.04.12","1CER",2697,"tapping",5,"right",0.08,0,1992,"left",18,255,1,"true",7,7,1189,42,2422,36,1606,64,"high","3","5",998,"no box","low",10,"hard",64,"exp 3 got 5","POSITIVE",8,"0",0,-1.69577479391758,-1.09810316646207,-0.689341703272472
100,"11","2021.04.09","2CRE",4920,"tapping",5,"right",0.08,100,1833,"right",27,255,1,"true",7,7,1807,8,3886,3,2461.99999999907,86,"high","3","5",2175,"no box","low",10,"hard",97,"exp 3 got 5","POSITIVE",10,"0",0,-1.79532421999191,2.40452687841913,1.48080366187144
100,"12","2021.04.09","3ECR",3239.99999999953,"tapping",5,"right",0.08,0,1224,"left",20,255,1,"true",7,7,2278,18,3592,33,1255.00000000047,29,"high","3","5",702,"no box","low",10,"hard",67,"exp 3 got 5","POSITIVE",8,"0",0,-1.20535731828898,0.656179587893208,-0.864891509867978
100,"13","2021.04.12","3ECR",3984,"tapping",5,"right",0.08,100,908,"right",23,255,1,"true",7,7,2070,72,5359.00000000047,0,1686,62,"high","3","5",1342,"box","low",10,"hard",100,"exp 3 got 5","POSITIVE",8,"1",100,0.733763971546541,0.961864118300619,-0.203727558736273
100,"14","2021.04.12","2CRE",3376,"tapping",5,"right",0.08,100,1295,"right",21,255,1,"true",7,7,2961,33,2270,20,1318,71,"high","3","5",798,"no box","low",10,"hard",80,"exp 3 got 5","POSITIVE",9,"0",0,-1.15517500021594,0.913539268362481,0.0277526771593346
100,"17","2021.04.13","4ERC",2967,"tapping",5,"right",0.08,100,391,"right",19,255,1,"true",7,7,2551,34,2905,29,3255,81,"high","3","5",967,"box","low",10,"hard",71,"exp 3 got 5","POSITIVE",6,"1",100,-1.89436785098229,0.835560798488898,0.651277981478104
100,"19","2021.04.13","5RCE",4257,"tapping",5,"right",0.08,0,157,"left",18,255,1,"true",7,7,3775,13,3471,11,6031,70,"high","3","5",3510,"no box","low",10,"hard",89,"exp 3 got 5","POSITIVE",10,"0",0,-1.75883559728695,1.7320231100638,0.251810166562039
100,"2","2021.04.06","1CER",2448,"tapping",5,"right",0.08,100,601,"right",17,255,1,"true",7,7,1592.99999999977,56,2471,43,1447,53,"high","3","5",559,"no box","low",10,"hard",57,"exp 3 got 5","POSITIVE",8,"0",0,-0.314524418792843,0.331382031167278,-0.620740794864988
100,"21","2021.04.14","6REC",3192,"tapping",5,"right",0.08,100,861,"right",20,255,1,"true",7,7,2854,78,2230.00000000047,2,3223.00000000047,86,"high","3","5",686,"no box","low",10,"hard",98,"exp 3 got 5","POSITIVE",9,"0",0,0.713302514254118,1.4165820546993,0.927701397991698
100,"22","2021.04.14","6REC",3255,"tapping",5,"right",0.08,0,628,"left",20,255,1,"true",7,7,2054,47,3126,21,3293,90,"high","3","5",1190,"no box","low",10,"hard",79,"exp 3 got 5","POSITIVE",9,"0",0,-0.582198219156881,1.5196680177555,1.40799395022015
100,"24","2021.04.15","5RCE",3231,"tapping",5,"right",0.08,0,1078,"left",20,255,1,"true",7,7,2750,63,3367.00000000047,43,3752,51,"high","3","5",743,"no box","low",10,"hard",57,"exp 3 got 5","POSITIVE",9,"0",0,-1.27121283656188,1.24242772646833,-0.193127549492513
100,"25","2021.04.15","5RCE",2528,"tapping",5,"right",0.08,100,1069,"right",17,255,1,"true",7,7,2799,69,3431,13,6248,61,"high","3","5",2871,"no box","low",10,"hard",87,"exp 3 got 5","POSITIVE",8,"0",0,0.763588957859923,0.870663000538498,-0.270426922984248
100,"27","2021.04.15","6REC",3200,"tapping",5,"right",0.08,100,1331,"right",20,255,1,"true",7,7,2238.99999999953,79,2479,17,2848.00000000093,65,"high","3","5",703.000000000466,"box","low",10,"hard",83,"exp 3 got 5","POSITIVE",8,"1",100,0.885015763605929,0.985330240977937,0.917805610249173
100,"3","2021.04.07","2CRE",3952,"tapping",5,"right",0.08,100,1911,"right",23,255,1,"true",7,7,1784,61,1774.00000000093,55,1326,59,"high","3","5",1798,"no box","low",10,"hard",45,"exp 3 got 5","POSITIVE",9,"0",0,-0.452763206782354,-0.706377048952222,-0.462494005749339
100,"31","2021.04.19","2CRE",1991,"tapping",5,"right",0.08,100,1548,"right",15,255,1,"true",7,7,2200,82,2486,43,3358,58,"high","3","5",1391,"box","low",10,"hard",57,"exp 3 got 5","POSITIVE",8,"1",100,0.218125298301411,0.586921375010754,-0.94892945730398
100,"32","2021.04.20","3ECR",3511.99999999953,"tapping",5,"right",0.08,100,1412,"right",21,255,1,"true",7,7,1550.99999999953,20,3969,27,2943,80,"high","3","5",471,"no box","low",10,"hard",73,"exp 3 got 5","POSITIVE",10,"0",0,-0.865284706058961,0.811403186697862,-0.0544481131398882
100,"34","2021.04.20","6REC",2750.99999999953,"tapping",5,"right",0.08,100,1786,"right",18,255,1,"true",7,7,1551.00000000047,54,1351,59,1871.99999999953,83,"high","3","5",735.000000000466,"box","low",10,"hard",41,"exp 3 got 5","POSITIVE",8,"1",100,0.134264116655645,-0.706398565941578,2.04395064244112
100,"35","2021.04.21","1CER",2216,"tapping",5,"right",0.08,0,1268,"left",16,255,1,"true",7,7,1208.00000000047,18,3494,23,1767,83,"high","3","5",1238,"box","low",10,"hard",77,"exp 3 got 5","POSITIVE",9,"1",100,-1.82120133842635,1.03852336617032,0.805205900173209
100,"36","2021.04.21","4ERC",2456,"tapping",5,"right",0.08,0,1412,"left",17,255,1,"true",7,7,2374,44,2760,44,2214,66,"high","3","5",766,"box","low",10,"hard",56,"exp 3 got 5","POSITIVE",7,"1",100,-0.78189159411379,-0.0829810152930686,0.902311436746297
100,"37","2021.04.21","5RCE",3688,"tapping",5,"right",0.08,100,953,"right",22,255,1,"true",7,7,2350.99999999953,28,2975,26,2289,74,"high","3","5",591,"no box","low",10,"hard",74,"exp 3 got 5","POSITIVE",10,"0",0,-0.573048944126933,0.88787329192053,0.3093467966947
100,"38","2021.04.21","6REC",2296,"tapping",5,"right",0.08,0,2130,"left",16,255,1,"true",7,7,2015.00000000093,74,2590,72,3129,72,"high","3","5",918,"box","low",10,"hard",28,"exp 3 got 5","POSITIVE",9,"1",100,0.631916469093887,-1.8014450171174,-0.0979199858975984
100,"39","2021.04.22","2CRE",3440,"tapping",5,"right",0.08,100,357,"right",21,255,1,"true",7,7,6288,42,4543,47,2751,58,"high","3","5",1447,"no box","low",10,"hard",53,"exp 3 got 5","POSITIVE",9,"0",0,-0.311716034961003,1.25289042480415,2.68182292130647
100,"41","2021.04.22","4ERC",3888,"tapping",5,"right",0.08,0,1213,"left",23,255,1,"true",7,7,2214.00000000047,84,2260.00000000047,15,2110,72,"high","3","5",1374,"no box","low",10,"hard",85,"exp 3 got 5","POSITIVE",9,"0",0,0.31505543398977,2.15782864489006,0.0982632417080041
100,"43","2021.04.26","1CER",4104,"tapping",5,"right",0.08,100,1269,"right",19,255,1,"true",7,7,4040,24,3398,36,4034,87,"high","3","5",1023,"no box","low",10,"hard",64,"exp 3 got 5","POSITIVE",10,"0",0,-1.00399782471942,0.20162737370756,1.98397508242001
100,"44","2021.04.26","3ECR",2744,"tapping",5,"right",0.08,100,617,"right",18,255,1,"true",7,7,2391.00000000047,88,3984,37,3319,77,"high","3","5",2038,"box","low",10,"hard",63,"exp 3 got 5","POSITIVE",7,"1",100,0.605806845554604,1.31476958595803,0.917240342332395
100,"45","2021.04.26","6REC",2727,"tapping",5,"right",0.08,100,2001,"right",18,255,1,"true",7,7,3134,45,2518.00000000093,43,4072,55,"high","3","5",654,"no box","low",10,"hard",57,"exp 3 got 5","POSITIVE",9,"0",0,-0.653309171878983,0.300662174840947,0.00750010143748129
100,"46","2021.04.29","4ERC",2744,"tapping",5,"right",0.08,0,1024,"left",18,255,1,"true",7,7,2445.99999999953,38,4080.00000000047,45,1958,98,"high","3","5",599,"box","low",10,"hard",55,"exp 3 got 5","POSITIVE",9,"1",100,-1.01568012232026,0.256314274799656,1.35160414273696
100,"48","2021.04.29","1CER",2936,"tapping",5,"right",0.08,100,1367,"right",19,255,1,"true",7,7,1112,78,1535,1,1791,23,"high","3","5",447.000000000466,"no box","low",10,"hard",99,"exp 3 got 5","POSITIVE",9,"0",0,0.464372545629719,1.66123684861904,-1.59040353777514
100,"52","2021.04.30","2CRE",2928,"tapping",5,"right",0.08,0,718,"left",19,255,1,"true",7,7,1880,62,2342.99999999953,18,1278,57,"high","3","5",678,"no box","low",10,"hard",82,"exp 3 got 5","POSITIVE",9,"0",0,-0.0118281891440879,0.839021079977018,-0.969143160212266
100,"53","2021.05.14","1CER",2040,"tapping",5,"right",0.08,0,1259,"left",15,255,1,"true",7,7,2713,65,3367,38,6495,72,"high","3","5",2198,"box","low",10,"hard",62,"exp 3 got 5","POSITIVE",6,"1",100,0.372544864643081,0.185280737251513,0.965467972295926
100,"54","2021.05.14","6REC",3976,"tapping",5,"right",0.08,0,998,"left",23,255,1,"true",7,7,5719,34,5006,44,5951.99999999953,62,"high","3","5",886.999999999534,"no box","low",10,"hard",56,"exp 3 got 5","POSITIVE",9,"0",0,-1.31205454527339,0.359500520164777,0.66212014057631
100,"56","2021.05.14","2CRE",4207.99999999953,"tapping",5,"right",0.08,0,1286,"left",24,255,1,"true",7,7,5257,44,2983,19,3558,80,"high","3","5",1190,"no box","low",10,"hard",81,"exp 3 got 5","POSITIVE",9,"0",0,-0.900968246588188,1.86780389386342,1.08576425636487
100,"57","2021.05.17","3ECR",4607,"tapping",5,"right",0.08,100,1251,"right",25,255,1,"true",7,7,2174,97,2880,0,3182,84,"high","3","5",878.000000000466,"no box","low",10,"hard",100,"exp 3 got 5","POSITIVE",10,"0",0,0.544741259451722,1.58823155445083,0.90246282392817
100,"59","2021.05.17","5RCE",4954,"tapping",5,"right",0.08,100,1656,"right",26,255,1,"true",7,7,2863,69,3311,5,2358.99999999907,57,"high","3","5",1558.99999999907,"box","low",10,"hard",95,"exp 3 got 5","POSITIVE",10,"1",100,0.779824650879108,2.99571561751837,0.742209690294035
100,"6","2021.04.08","2CRE",3224.00000000047,"tapping",5,"right",0.08,100,1114,"right",20,255,1,"true",7,7,1918.99999999953,65,3615,53,5703,70,"high","3","5",4559.00000000047,"no box","low",10,"hard",47,"exp 3 got 5","POSITIVE",10,"0",0,0.0323831842591159,-0.867589357095947,0.829288209222822
100,"60","2021.05.17","6REC",3983,"tapping",5,"right",0.08,100,511,"right",23,255,1,"true",7,7,1991,26,2678,28,1208,75,"high","3","5",959,"no box","low",10,"hard",72,"exp 3 got 5","POSITIVE",9,"0",0,-1.98727757180034,0.956437031523858,0.220355607565768
100,"7","2021.04.08","3ECR",3432,"tapping",5,"right",0.08,100,1450,"right",21,255,1,"true",7,7,4519,28,5872,48,12095,45,"high","3","5",719,"no box","low",10,"hard",52,"exp 3 got 5","POSITIVE",10,"0",0,-0.986910845603597,0.418851119519737,0.244062846396938
100,"9","2021.04.09","3ECR",4032,"tapping",5,"right",0.08,100,628,"right",23,255,1,"true",7,7,2286,100,3929,0,2046,83,"high","3","5",1766,"box","low",10,"hard",100,"exp 3 got 5","POSITIVE",9,"1",100,1.05113034737311,1.20909549006079,0.56053834740008
101,"1","2021.04.06","1CER",2672,"tapping",6,"left",0.38,100,926,"left",16,215,1,"true",7,7,2552.00000000047,76,2847.00000000047,40,2927,75,"high","3","5",854,"box","high",40,"hard",60,"exp 3 got 5","POSITIVE",6,"1",100,0.677768794231101,0.282634767772838,0.0589308739056748
101,"10","2021.04.12","1CER",2007,"tapping",6,"left",0.38,100,411,"left",14,215,1,"true",7,7,1599.99999999988,95,1974,22,1870,81,"high","3","5",822,"box","high",40,"hard",78,"exp 3 got 5","POSITIVE",6,"1",100,1.07527313866792,0.495363358012876,0.887046303449601
101,"11","2021.04.09","2CRE",2328,"tapping",6,"left",0.38,0,1842,"right",15,215,1,"true",7,7,3470,25,5078,34,1958,73,"high","3","5",2735,"no box","high",40,"hard",66,"exp 3 got 5","POSITIVE",6,"0",0,-1.10776947833165,0.481763578009023,0.163754966050327
101,"12","2021.04.09","3ECR",2680.00000000093,"tapping",6,"left",0.38,100,1495,"left",16,215,1,"true",7,7,4374,44,2696,33,1502,46,"high","3","5",791,"no box","high",40,"hard",67,"exp 3 got 5","POSITIVE",6,"0",0,-0.150735088001401,0.656179587893208,-0.198520419662679
101,"13","2021.04.12","3ECR",2408,"tapping",6,"left",0.38,100,1079,"left",15,215,1,"true",7,7,1526,62,6893,31,1606,57,"high","3","5",726,"no box","high",40,"hard",69,"exp 3 got 5","POSITIVE",6,"0",0,-0.145154760251493,-1.82563444549976,-0.994669845594745
101,"14","2021.04.12","2CRE",3521,"tapping",6,"left",0.38,100,1620,"left",19,215,1,"true",7,7,2239,68,1783.00000000047,16,1935,65,"high","3","5",1767,"no box","high",40,"hard",84,"exp 3 got 5","POSITIVE",8,"0",0,0.700217898765806,1.1218209485952,-0.820942095326129
101,"17","2021.04.13","4ERC",4072,"tapping",6,"left",0.38,100,1349,"left",21,215,1,"true",7,7,3054,82,2768,23,2319,74,"high","3","5",743,"no box","high",40,"hard",77,"exp 3 got 5","POSITIVE",7,"0",0,0.961713408643311,1.08296862482035,0.161191300415831
101,"18","2021.04.13","4ERC",2025,"tapping",6,"left",0.38,0,1728,"right",14,215,1,"true",7,7,10879,47,8560,54,3079,62,"high","3","5",1575,"no box","high",40,"hard",46,"exp 3 got 5","POSITIVE",6,"0",0,-1.35221503875132,0.0960977183843194,-0.444975168279521
101,"19","2021.04.13","5RCE",1231.99999999953,"tapping",6,"left",0.38,100,1340,"left",11,215,1,"true",7,7,2868,92,1943,59,3529,33,"high","3","5",830.999999999534,"box","high",40,"hard",41,"exp 3 got 5","POSITIVE",5,"1",100,0.854761224849733,-0.341839515604056,-1.02525811782113
101,"2","2021.04.06","1CER",2384,"tapping",6,"left",0.38,100,1386,"left",15,215,1,"true",7,7,1809,69,2791,38,1903,69,"high","3","5",1095,"box","high",40,"hard",62,"exp 3 got 5","POSITIVE",6,"1",100,0.869668611525566,0.623777941020759,1.45984495235046
101,"20","2021.04.13","5RCE",2951,"tapping",6,"left",0.38,100,2010,"left",17,215,1,"true",7,7,2898,80,3670,60,2784,74,"high","3","5",1447,"box","high",40,"hard",40,"exp 3 got 5","POSITIVE",6,"1",100,2.14419084117347,-0.891374156666702,0.515004026817097
101,"21","2021.04.14","6REC",2087.99999999907,"tapping",6,"left",0.38,100,1819,"left",14,215,1,"true",7,7,1998.00000000093,78,2894.00000000093,23,1816,82,"high","3","5",1854,"no box","high",40,"hard",77,"exp 3 got 5","POSITIVE",6,"0",0,0.713302514254118,0.413480747262072,0.777580312096708
101,"22","2021.04.14","6REC",2632,"tapping",6,"left",0.38,100,1405,"left",16,215,1,"true",7,7,3210,70,2358,33,1455.99999999953,69,"high","3","5",862,"box","high",40,"hard",67,"exp 3 got 5","POSITIVE",6,"1",100,1.37162870405455,0.760438490985051,-0.514223877471709
101,"23","2021.04.14","6REC",2961,"tapping",6,"left",0.38,100,1475,"left",17,215,1,"true",7,7,1815,67,2863,28,6303.99999999953,56,"high","3","5",1495.00000000047,"box","high",40,"hard",72,"exp 3 got 5","POSITIVE",6,"1",100,0.304229683808498,0.753966203241676,-0.170044835659202
101,"25","2021.04.15","5RCE",2631.99999999953,"tapping",6,"left",0.38,0,563,"right",16,215,1,"true",7,7,3703.00000000047,37,3733,32,7228.99999999953,55,"high","3","5",1175,"no box","high",40,"hard",68,"exp 3 got 5","POSITIVE",7,"0",0,-0.90887794596758,0.0752977375730298,-0.77628434362537
101,"27","2021.04.15","6REC",2600,"tapping",6,"left",0.38,0,1385,"right",16,215,1,"true",7,7,3399.00000000093,60,2766,35,2200,60,"high","3","5",591,"no box","high",40,"hard",65,"exp 3 got 5","POSITIVE",6,"0",0,-0.0140430234997836,-0.121826977035935,0.462136585301633
101,"31","2021.04.19","2CRE",2112,"tapping",6,"left",0.38,100,527,"left",14,215,1,"true",7,7,2441.00000000023,100,2110,46,1447,68,"high","3","5",2383,"box","high",40,"hard",54,"exp 3 got 5","POSITIVE",7,"1",100,0.773563723684313,0.485909449587605,-0.00236640762419999
101,"32","2021.04.20","3ECR",1816,"tapping",6,"left",0.38,100,238,"left",13,215,1,"true",7,7,3310.99999999977,37,5496,33,3943,92,"high","3","5",1279,"no box","high",40,"hard",67,"exp 3 got 5","POSITIVE",6,"0",0,-0.362920906596768,0.535962218087555,1.02328773457748
101,"34","2021.04.20","6REC",1992,"tapping",6,"left",0.38,0,1073,"right",14,215,1,"true",7,7,1391,61,1903.00000000047,40,3368.00000000047,76,"high","3","5",1102.99999999953,"no box","high",40,"hard",60,"exp 3 got 5","POSITIVE",6,"0",0,0.662720034880357,0.476316712896468,1.50378112976731
101,"35","2021.04.21","1CER",1456.99999999953,"tapping",6,"left",0.38,100,635,"left",12,215,1,"true",7,7,2136,72,1687,14,2951,81,"high","3","5",862,"box","high",40,"hard",86,"exp 3 got 5","POSITIVE",6,"1",100,0.32958865118596,1.46253063787014,0.723225025831679
101,"36","2021.04.21","4ERC",2344,"tapping",6,"left",0.38,100,536,"left",15,215,1,"true",7,7,2710.99999999977,65,2487.99999999977,43,2663,63,"high","3","5",998.999999999767,"box","high",40,"hard",57,"exp 3 got 5","POSITIVE",6,"1",100,0.9436444486793,0.00801196009726148,0.746198794262443
101,"37","2021.04.21","5RCE",3176,"tapping",6,"left",0.38,100,1305,"left",18,215,1,"true",7,7,1983.00000000047,74,3159,26,1727.99999999953,75,"high","3","5",1223.00000000047,"box","high",40,"hard",74,"exp 3 got 5","POSITIVE",9,"1",100,1.04001059340775,0.88787329192053,0.563913431474713
101,"38","2021.04.21","6REC",1193,"tapping",6,"left",0.38,100,1271,"left",11,215,1,"true",7,7,2103,70,1775,21,2112,73,"high","3","5",671,"no box","high",40,"hard",79,"exp 3 got 5","POSITIVE",5,"0",0,0.466099929438254,0.566433742495679,0.00251076886916978
101,"39","2021.04.22","2CRE",2113,"tapping",6,"left",0.38,100,1974,"left",14,215,1,"true",7,7,1726,53,1862,66,2671,52,"high","3","5",518,"box","high",40,"hard",34,"exp 3 got 5","POSITIVE",6,"1",100,0.638094670869649,0.266961283534722,-0.528288831424236
101,"41","2021.04.22","4ERC",1808,"tapping",6,"left",0.38,100,1331,"left",13,215,1,"true",7,7,1807.00000000047,83,2376,76,2166,77,"high","3","5",966,"no box","high",40,"hard",24,"exp 3 got 5","POSITIVE",6,"0",0,0.232005107002671,-0.50565305712502,0.512143743467261
101,"44","2021.04.26","3ECR",1738,"tapping",6,"left",0.38,100,211,"left",13,215,1,"true",7,7,4303,83,9526,79,4855,75,"high","3","5",1871,"box","high",40,"hard",21,"exp 3 got 5","POSITIVE",6,"1",100,0.372007427875983,-1.53927391172515,0.737210560855974
101,"45","2021.04.26","6REC",2400,"tapping",6,"left",0.38,0,691,"right",15,215,1,"true",7,7,2700,67,2798,29,2232.99999999953,62,"high","3","5",1062,"box","high",40,"hard",71,"exp 3 got 5","POSITIVE",7,"1",100,0.292974672109705,1.09646954843898,0.424880746433307
101,"46","2021.04.29","4ERC",2129,"tapping",6,"left",0.38,100,861,"left",14,215,1,"true",7,7,2892.00000000047,31,3151,34,1958,60,"high","3","5",1278,"no box","high",40,"hard",66,"exp 3 got 5","POSITIVE",6,"0",0,-1.29279625800813,0.802456070982943,-0.106219733055255
101,"47","2021.04.29","6REC",2386,"tapping",6,"left",0.38,0,283,"right",15,215,1,"true",7,7,6863,68,2799,86,2054,99,"high","3","5",1871,"box","high",40,"hard",14,"exp 3 got 5","POSITIVE",6,"1",100,-0.359423111003698,-0.449133354289057,0.707548564765606
101,"48","2021.04.29","1CER",1464.00000000047,"tapping",6,"left",0.38,100,1530,"left",12,215,1,"true",7,7,1601,84,1407,32,1030,61,"high","3","5",590.999999999534,"no box","high",40,"hard",68,"exp 3 got 5","POSITIVE",6,"0",0,0.975933063563612,0.131011390416228,0.236096780650519
101,"5","2021.04.08","1CER",4127,"tapping",6,"left",0.38,0,220,"right",21,215,1,"true",7,7,4424,21,3583.00000000023,23,3918,67,"high","3","5",3669.99999999977,"no box","high",40,"hard",77,"exp 3 got 5","POSITIVE",7,"0",0,-1.56762037321596,0.377485540539466,-0.509011248026452
101,"50","2021.04.30","4ERC",2087.00000000047,"tapping",6,"left",0.38,100,1150,"left",14,215,1,"true",7,7,1879,18,2617.00000000047,38,2183,100,"high","3","5",1183,"box","high",40,"hard",62,"exp 3 got 5","POSITIVE",6,"1",100,-0.426396452597075,-0.687116422475879,1.03900315041971
101,"51","2021.04.30","3ECR",2896,"tapping",6,"left",0.38,100,184,"left",17,215,1,"true",7,7,3151,56,3825,42,2919,46,"high","3","5",2071,"no box","high",40,"hard",58,"exp 3 got 5","POSITIVE",6,"0",0,0.0868836974411392,-0.0711668481453975,-1.12435333089286
101,"52","2021.04.30","2CRE",2328,"tapping",6,"left",0.38,100,826,"left",15,215,1,"true",7,7,1632,92,3661.99999999953,21,3358,55,"high","3","5",606.000000000466,"no box","high",40,"hard",79,"exp 3 got 5","POSITIVE",6,"0",0,1.01399839662498,0.731407997118982,-1.08207372999882
101,"53","2021.05.14","1CER",2920.00000000023,"tapping",6,"left",0.38,100,346,"left",17,215,1,"true",7,7,4401.00000000023,97,8687,3,9047.00000000023,38,"high","3","5",3199.00000000023,"no box","high",40,"hard",97,"exp 3 got 5","POSITIVE",8,"0",0,1.5699935840553,2.08974630788509,-0.96834781710516
101,"54","2021.05.14","6REC",3263,"tapping",6,"left",0.38,100,826,"left",18,215,1,"true",7,7,1702,58,2007,37,2593,74,"high","3","5",815,"box","high",40,"hard",63,"exp 3 got 5","POSITIVE",6,"1",100,0.505809481808224,0.873847629261981,1.26613586065307
101,"56","2021.05.14","2CRE",2631,"tapping",6,"left",0.38,100,1927,"left",16,215,1,"true",7,7,1672,62,1726,39,2319,79,"high","3","5",839,"box","high",40,"hard",61,"exp 3 got 5","POSITIVE",6,"1",100,-0.00876690659105285,0.796113135089325,1.04110635326312
101,"57","2021.05.17","3ECR",3161,"tapping",6,"left",0.38,100,890,"left",18,215,1,"true",7,7,2006,99,3919.00000000047,35,1998,78,"high","3","5",702.000000000466,"no box","high",40,"hard",65,"exp 3 got 5","POSITIVE",8,"0",0,0.620717023076256,0.690987122117862,0.721220016584906
101,"59","2021.05.17","5RCE",3776.00000000093,"tapping",6,"left",0.38,0,1358,"right",20,215,1,"true",7,7,11654.0000000005,33,4799,23,2375,54,"high","3","5",1127.00000000047,"no box","high",40,"hard",77,"exp 3 got 5","POSITIVE",9,"0",0,-0.766934987228213,1.56088092960004,0.53127976054795
101,"6","2021.04.08","2CRE",1817,"tapping",6,"left",0.38,0,1385,"right",13,215,1,"true",7,7,4887,63,1743,22,1678.99999999907,68,"high","3","5",815,"no box","high",40,"hard",78,"exp 3 got 5","POSITIVE",6,"0",0,-0.0778574430059583,0.901109044546428,0.688432462433383
101,"60","2021.05.17","6REC",3791,"tapping",6,"left",0.38,0,384,"right",20,215,1,"true",7,7,3215,45,1974,38,1496,70,"high","3","5",1143,"box","high",40,"hard",62,"exp 3 got 5","POSITIVE",8,"1",100,-0.797981703256596,0.439531905717286,-1.53147147258207
101,"7","2021.04.08","3ECR",1736,"tapping",6,"left",0.38,100,1432,"left",13,215,1,"true",7,7,3767,55,3663.99999999907,60,14294.9999999991,54,"high","3","5",871,"box","high",40,"hard",40,"exp 3 got 5","POSITIVE",6,"1",100,0.997014167429228,-0.709050913408588,1.1665051004956
101,"8","2021.04.09","3ECR",1992,"tapping",6,"left",0.38,100,944,"left",14,215,1,"true",7,7,1767,56,1848,34,2295,64,"high","3","5",727,"no box","high",40,"hard",66,"exp 3 got 5","POSITIVE",6,"0",0,0.816011293169594,0.738703944698292,0.411291228364187
101,"9","2021.04.09","3ECR",2688,"tapping",6,"left",0.38,100,1685,"left",16,215,1,"true",7,7,3174.99999999907,100,1721,28,2430,82,"high","3","5",894,"box","high",40,"hard",72,"exp 3 got 5","POSITIVE",6,"1",100,1.05113034737311,0.438182395936602,0.431183344153907
102,"1","2021.04.06","1CER",3584,"tapping",6,"left",0.38,0,1919,"right",19,215,1,"true",7,7,3726,70,4582,43,3311,73,"high","3","5",942,"box","high",40,"hard",57,"exp 3 got 5","POSITIVE",7,"1",100,0.374421463623884,0.109028248695753,-0.0989809823852596
102,"10","2021.04.12","1CER",1504,"tapping",6,"left",0.38,100,1441,"left",12,215,1,"true",7,7,1351,92,2006,14,2141.99999999953,98,"high","3","5",806,"box","high",40,"hard",86,"exp 3 got 5","POSITIVE",6,"1",100,0.918421368898932,1.40591565771284,2.46343431017167
102,"11","2021.04.09","2CRE",2337,"tapping",6,"left",0.38,100,1580,"left",15,215,1,"true",7,7,3288,45,2437.99999999953,21,2494,72,"high","3","5",1895,"no box","high",40,"hard",79,"exp 3 got 5","POSITIVE",6,"0",0,-0.298881546966633,1.28808367172939,0.0624435279102419
102,"12","2021.04.09","3ECR",2392,"tapping",6,"left",0.38,100,1215,"left",15,215,1,"true",7,7,2527.00000000047,26,6968,58,1414,26,"high","3","5",702,"no box","high",40,"hard",42,"exp 3 got 5","POSITIVE",6,"0",0,-0.880858170508184,-0.104651023443172,-0.982486408139502
102,"13","2021.04.12","3ECR",2272,"tapping",6,"left",0.38,100,321,"left",15,215,1,"true",7,7,2463,84,5632,9,3299.99999999977,65,"high","3","5",3558,"box","high",40,"hard",91,"exp 3 got 5","POSITIVE",6,"1",100,1.78846644970418,0.152590341713413,0.27083781337881
102,"14","2021.04.12","2CRE",2952,"tapping",6,"left",0.38,100,816,"left",17,215,1,"true",7,7,2334,55,3334,29,3495,76,"high","3","5",1566,"box","high",40,"hard",71,"exp 3 got 5","POSITIVE",6,"1",100,0.0110719648582996,0.444905487838871,0.734998320897221
102,"16","2021.04.13","4ERC",3545,"tapping",6,"left",0.38,100,337,"left",19,215,1,"true",7,7,4583,89,3527,74,6375,78,"high","3","5",991,"box","high",40,"hard",26,"exp 3 got 5","POSITIVE",6,"1",100,0.813370131438926,-0.442133125822572,0.249248714338526
102,"17","2021.04.13","4ERC",4152.00000000047,"tapping",6,"left",0.38,100,870,"left",21,215,1,"true",7,7,4463,86,6792,45,2815,84,"high","3","5",2047,"no box","high",40,"hard",55,"exp 3 got 5","POSITIVE",7,"0",0,1.19972018027878,0.175806594938368,0.861315130504792
102,"18","2021.04.13","4ERC",5000,"tapping",6,"left",0.38,0,635,"right",24,215,1,"true",7,7,2903,42,5025,17,4231,57,"high","3","5",1119,"no box","high",40,"hard",83,"exp 3 got 5","POSITIVE",9,"0",0,-1.59478796555022,1.39828420360768,-0.846649295855785
102,"19","2021.04.13","5RCE",3168,"tapping",6,"left",0.38,100,409,"left",18,215,1,"true",7,7,2759,90,3223,2,4231.99999999977,71,"high","3","5",767,"no box","high",40,"hard",98,"exp 3 got 5","POSITIVE",10,"0",0,0.788594216694374,2.12087235237652,0.286325525599422
102,"2","2021.04.06","1CER",2297,"tapping",6,"left",0.38,100,1143,"left",15,215,1,"true",7,7,1728,58,2038.99999999953,41,2166.99999999953,56,"high","3","5",471,"no box","high",40,"hard",59,"exp 3 got 5","POSITIVE",6,"0",0,-0.132340875666934,0.44834039510867,-0.23063096726209
102,"20","2021.04.13","5RCE",3249,"tapping",6,"left",0.38,0,366,"right",18,215,1,"true",7,7,2966,60,2847,52,2616,82,"high","3","5",1831,"no box","high",40,"hard",48,"exp 3 got 5","POSITIVE",6,"0",0,0.46635820513508,-0.457224519479085,1.13569689899523
102,"21","2021.04.14","6REC",2385,"tapping",6,"left",0.38,100,554,"left",15,215,1,"true",7,7,2094,98,2902,40,4468,87,"high","3","5",3294.00000000023,"no box","high",40,"hard",60,"exp 3 got 5","POSITIVE",6,"0",0,1.63147147870029,-0.398553644472828,0.965231669465446
102,"22","2021.04.14","6REC",2128,"tapping",6,"left",0.38,0,1794,"right",14,215,1,"true",7,7,2279,55,1606,46,2023,70,"high","3","5",934,"box","high",40,"hard",54,"exp 3 got 5","POSITIVE",6,"1",100,0.0973937541340508,-0.0620601630162681,-0.422689695200668
102,"23","2021.04.14","6REC",3504,"tapping",6,"left",0.38,100,1521,"left",19,215,1,"true",7,7,1535.00000000047,86,2134,13,1984.00000000047,47,"high","3","5",1279,"no box","high",40,"hard",87,"exp 3 got 5","POSITIVE",6,"0",0,1.14771627496854,1.5083021790205,-0.877986600444452
102,"25","2021.04.15","5RCE",2335,"tapping",6,"left",0.38,100,1475,"left",15,215,1,"true",7,7,2998,26,2950,19,2433,55,"high","3","5",966.999999999069,"no box","high",40,"hard",81,"exp 3 got 5","POSITIVE",6,"0",0,-1.48378844415828,0.619495022759929,-0.77628434362537
102,"27","2021.04.15","6REC",2984,"tapping",6,"left",0.38,100,1250,"left",17,215,1,"true",7,7,4287,78,6447,15,2735.99999999953,59,"high","3","5",911.000000000466,"box","high",40,"hard",85,"exp 3 got 5","POSITIVE",7,"1",100,0.83769688007405,1.10834770964614,0.371002780312126
102,"3","2021.04.07","2CRE",4368,"tapping",6,"left",0.38,100,1035,"left",20,215,1,"true",7,7,1728,100,2350.00000000047,58,2702,100,"high","3","5",1150,"box","high",40,"hard",42,"exp 3 got 5","POSITIVE",6,"1",100,0.897107263025366,-0.862180034414113,0.940011554913824
102,"31","2021.04.19","2CRE",2032,"tapping",6,"left",0.38,100,888,"left",14,215,1,"true",7,7,1990.99999999953,81,1574,68,1991,65,"high","3","5",1959,"box","high",40,"hard",32,"exp 3 got 5","POSITIVE",7,"1",100,0.18726760800236,-0.254844670182152,-0.286335322528134
102,"32","2021.04.20","3ECR",1448,"tapping",6,"left",0.38,100,933,"left",12,215,1,"true",7,7,3199,27,2362,41,2287,71,"high","3","5",707,"no box","high",40,"hard",59,"exp 3 got 5","POSITIVE",6,"0",0,-0.65842902392747,0.168707593273813,-0.862749998927916
102,"34","2021.04.20","6REC",1992,"tapping",6,"left",0.38,100,2202,"left",14,215,1,"true",7,7,1247,61,1862.00000000093,45,1456,58,"high","3","5",607,"no box","high",40,"hard",55,"exp 3 got 5","POSITIVE",6,"0",0,0.662720034880357,0.165075850044351,0.114773811463241
102,"35","2021.04.21","1CER",1752,"tapping",6,"left",0.38,100,1737,"left",13,215,1,"true",7,7,1768,78,1270,23,2086,95,"high","3","5",510,"box","high",40,"hard",77,"exp 3 got 5","POSITIVE",6,"1",100,0.568565316698439,1.03852336617032,1.29709114622238
102,"36","2021.04.21","4ERC",2968,"tapping",6,"left",0.38,100,1358,"left",17,215,1,"true",7,7,2390,57,2263.00000000047,42,2023,68,"high","3","5",766,"box","high",40,"hard",58,"exp 3 got 5","POSITIVE",7,"1",100,0.286297384758123,0.0990049354875916,1.00638653173553
102,"37","2021.04.21","5RCE",2047,"tapping",6,"left",0.38,0,402,"right",14,215,1,"true",7,7,4903,28,2191,63,2565,74,"high","3","5",831,"no box","high",40,"hard",37,"exp 3 got 5","POSITIVE",6,"0",0,-0.573048944126933,-1.26407831030477,0.3093467966947
102,"38","2021.04.21","6REC",1792.00000000023,"tapping",6,"left",0.38,100,657,"left",13,215,1,"true",7,7,1983,66,4166,59,2344,61,"high","3","5",719,"no box","high",40,"hard",41,"exp 3 got 5","POSITIVE",6,"0",0,0.300283389782622,-1.1978680783925,-1.20265828833205
102,"39","2021.04.22","2CRE",2944.00000000023,"tapping",6,"left",0.38,0,393,"right",17,215,1,"true",7,7,4032,19,6519,51,2919,56,"high","3","5",1030.99999999977,"no box","high",40,"hard",49,"exp 3 got 5","POSITIVE",7,"0",0,-2.29768387442509,1.04532639506322,1.61178567039624
102,"4","2021.04.07","2CRE",3824,"tapping",6,"left",0.38,100,1656,"left",20,215,1,"true",7,7,2919,72,3166,22,2318,71,"high","3","5",1222,"box","high",40,"hard",78,"exp 3 got 5","POSITIVE",7,"1",100,-0.158245046266242,1.67709120943546,0.859751113056791
102,"41","2021.04.22","4ERC",1776,"tapping",6,"left",0.38,100,1105,"left",13,215,1,"true",7,7,2334,74,3456,74,1898,72,"high","3","5",1117.99999999953,"no box","high",40,"hard",26,"exp 3 got 5","POSITIVE",6,"0",0,-0.515447835881222,-0.418325788206493,0.0982632417080041
102,"43","2021.04.26","1CER",1760,"tapping",6,"left",0.38,0,1350,"right",13,215,1,"true",7,7,1520,1,3204,70,2951,58,"high","3","5",630.000000000931,"no box","high",40,"hard",30,"exp 3 got 5","POSITIVE",6,"0",0,-1.77291839269209,-1.21239645339037,0.652022873240745
102,"44","2021.04.26","3ECR",2408.00000000093,"tapping",6,"left",0.38,100,1882,"left",15,215,1,"true",7,7,7990,72,4487,33,7199,80,"high","3","5",550,"no box","high",40,"hard",67,"exp 3 got 5","POSITIVE",6,"0",0,-0.142351291016983,1.58658325240405,1.18728501454703
102,"45","2021.04.26","6REC",3808,"tapping",6,"left",0.38,0,1278,"right",20,215,1,"true",7,7,2694.00000000047,20,2790,27,4294,83,"high","3","5",1101.99999999953,"no box","high",40,"hard",73,"exp 3 got 5","POSITIVE",10,"0",0,-1.72863172186613,1.21015631609584,1.67702268142078
102,"46","2021.04.29","4ERC",2312,"tapping",6,"left",0.38,100,1448,"left",15,215,1,"true",7,7,2413.99999999953,94,3327,24,2038,93,"high","3","5",566.000000000466,"box","high",40,"hard",76,"exp 3 got 5","POSITIVE",6,"1",100,1.20124896318267,1.29894861296775,1.15978521171167
102,"47","2021.04.29","6REC",4135.99999999907,"tapping",6,"left",0.38,100,1945,"left",21,215,1,"true",7,7,2615,36,3990,21,3455,83,"high","3","5",782,"no box","high",40,"hard",79,"exp 3 got 5","POSITIVE",7,"0",0,-1.78458967699706,2.26853174220909,-1.29115413956538
102,"48","2021.04.29","1CER",3759,"tapping",6,"left",0.38,100,1087,"left",20,215,1,"true",7,7,2553,64,3127,22,4791.00000000047,59,"high","3","5",1055,"no box","high",40,"hard",78,"exp 3 got 5","POSITIVE",9,"0",0,-0.729268662882698,0.624632505965523,0.139965184943906
102,"5","2021.04.08","1CER",4952,"tapping",6,"left",0.38,100,1665,"left",24,215,1,"true",7,7,3815,72,3382,64,2150,36,"high","3","5",3190,"no box","high",40,"hard",36,"exp 3 got 5","POSITIVE",8,"0",0,0.491300659621372,-1.59454358591927,-2.25534232821207
102,"50","2021.04.30","4ERC",2896,"tapping",6,"left",0.38,100,1674,"left",17,215,1,"true",7,7,1190,13,2799,30,2359,100,"high","3","5",799,"box","high",40,"hard",70,"exp 3 got 5","POSITIVE",7,"1",100,-0.755727046066361,-0.0920070423258303,1.03900315041971
102,"51","2021.04.30","3ECR",2640,"tapping",6,"left",0.38,100,283,"left",16,215,1,"true",7,7,3437,87,4047.99999999977,64,4598.99999999977,56,"high","3","5",2127,"no box","high",40,"hard",36,"exp 3 got 5","POSITIVE",6,"0",0,1.38714316949129,-1.33090186129382,-0.403283856202065
102,"52","2021.04.30","2CRE",2408,"tapping",6,"left",0.38,100,284,"left",15,215,1,"true",7,7,2480,100,3861.99999999977,27,4646,52,"high","3","5",2319.00000000023,"box","high",40,"hard",73,"exp 3 got 5","POSITIVE",6,"1",100,1.28755215283007,0.516181831402909,-1.25146958467865
102,"53","2021.05.14","1CER",3008,"tapping",6,"left",0.38,100,1710,"left",17,215,1,"true",7,7,4792,60,5119,34,5695,72,"high","3","5",2822,"box","high",40,"hard",66,"exp 3 got 5","POSITIVE",8,"1",100,0.185443502234922,0.402933945323921,0.965467972295926
102,"54","2021.05.14","6REC",3505,"tapping",6,"left",0.38,100,1585,"left",19,215,1,"true",7,7,1366,60,1798,36,2687.99999999907,61,"high","3","5",902.999999999069,"no box","high",40,"hard",64,"exp 3 got 5","POSITIVE",7,"0",0,0.657298150731692,0.947325787704439,0.61178549723658
102,"56","2021.05.14","2CRE",1727.00000000023,"tapping",6,"left",0.38,100,382,"left",13,215,1,"true",7,7,2746,62,6159,46,3438.00000000023,75,"high","3","5",2062,"no box","high",40,"hard",54,"exp 3 got 5","POSITIVE",6,"0",0,-0.00876690659105285,0.421021369518393,0.862474740856145
102,"57","2021.05.17","3ECR",2416,"tapping",6,"left",0.38,100,1965,"left",15,215,1,"true",7,7,1046,40,2351,76,1070,59,"high","3","5",862,"box","high",40,"hard",24,"exp 3 got 5","POSITIVE",6,"1",100,-1.62056800384749,-0.360070641472184,0.147284459997903
102,"59","2021.05.17","5RCE",2080,"tapping",6,"left",0.38,100,789,"left",14,215,1,"true",7,7,8703,61,6383.00000000047,57,3911.99999999953,59,"high","3","5",1263,"box","high",40,"hard",43,"exp 3 got 5","POSITIVE",6,"1",100,0.436100286855259,-1.14936236980124,0.882829643458091
102,"6","2021.04.08","2CRE",3241,"tapping",6,"left",0.38,0,1250,"right",18,215,1,"true",7,7,3007.00000000047,72,4151,27,3631,70,"high","3","5",1103,"no box","high",40,"hard",73,"exp 3 got 5","POSITIVE",9,"0",0,0.418225379686876,0.615835108797658,0.829288209222822
102,"60","2021.05.17","6REC",3312.00000000047,"tapping",6,"left",0.38,100,1459,"left",18,215,1,"true",7,7,1822.00000000047,68,2358,31,2808,76,"high","3","5",1623,"no box","high",40,"hard",69,"exp 3 got 5","POSITIVE",6,"0",0,0.641692242875309,0.801365493781887,0.570721023595337
102,"7","2021.04.08","3ECR",2113,"tapping",6,"left",0.38,100,420,"left",14,215,1,"true",7,7,7550.99999999977,47,7559,42,5715.00000000023,14,"high","3","5",2079,"no box","high",40,"hard",58,"exp 3 got 5","POSITIVE",6,"0",0,0.40918453393802,0.982802135983899,-2.93323825105401
102,"8","2021.04.09","3ECR",2119.99999999953,"tapping",6,"left",0.38,100,1558,"left",14,215,1,"true",7,7,2311,32,3088,34,1926.99999999953,80,"high","3","5",1047,"no box","high",40,"hard",66,"exp 3 got 5","POSITIVE",6,"0",0,-0.616984148494083,0.738703944698292,1.44394858942627
102,"9","2021.04.09","3ECR",3264.00000000023,"tapping",6,"left",0.38,100,637,"left",18,215,1,"true",7,7,4358.99999999977,100,2185,3,2710,89,"high","3","5",967,"box","high",40,"hard",97,"exp 3 got 5","POSITIVE",7,"1",100,1.05113034737311,1.12649765854749,1.33666836687711
103,"1","2021.04.06","1CER",4727,"tapping",6,"left",0.39,0,1251,"right",24,225,1,"true",7,7,1976.00000000047,57,2414.00000000047,31,4215,66,"high","3","5",757.999999999534,"no box","high",40,"hard",69,"exp 3 got 5","POSITIVE",9,"0",0,-0.282831086025087,0.803454325004091,-0.65167247940353
103,"10","2021.04.12","1CER",3679,"tapping",6,"left",0.39,100,1296,"left",19,225,1,"true",7,7,2013,67,2182.00000000047,23,2038.00000000047,63,"high","3","5",854,"no box","high",40,"hard",77,"exp 3 got 5","POSITIVE",9,"0",0,-0.388676712509323,0.38154432055038,-0.782070409550241
103,"11","2021.04.09","2CRE",1729,"tapping",6,"left",0.39,100,1752,"left",13,225,1,"true",7,7,2543,78,1374.00000000093,33,1822.99999999953,76,"high","3","5",1782,"box","high",40,"hard",67,"exp 3 got 5","POSITIVE",6,"1",100,1.03578353978564,0.543788200602898,0.467689280470583
103,"12","2021.04.09","3ECR",2825,"tapping",6,"left",0.39,100,953,"left",17,225,1,"true",7,7,1518,77,6984,30,1919.99999999953,90,"high","3","5",1118,"box","high",40,"hard",70,"exp 3 got 5","POSITIVE",6,"1",100,1.18782389659437,0.747479261253573,1.52620475498633
103,"13","2021.04.12","3ECR",4184,"tapping",6,"left",0.39,100,953,"left",22,225,1,"true",7,7,2166,60,2825.00000000047,2,2246,68,"high","3","5",1454,"no box","high",40,"hard",98,"exp 3 got 5","POSITIVE",8,"0",0,-0.3209385066111,0.78202550128124,0.745403185493893
103,"14","2021.04.12","2CRE",2521,"tapping",6,"left",0.39,100,247,"left",16,225,1,"true",7,7,1912,69,2526,14,1710,82,"high","3","5",1078,"no box","high",40,"hard",86,"exp 3 got 5","POSITIVE",6,"0",0,0.753229124450999,1.22596178871156,1.58369309338268
103,"16","2021.04.13","4ERC",4960,"tapping",6,"left",0.39,100,1873,"left",23,225,1,"true",7,7,3583,23,5120,71,2679,68,"high","3","5",934,"no box","high",40,"hard",29,"exp 3 got 5","POSITIVE",7,"0",0,-1.08152025701954,-0.33361911797573,-0.568350571548997
103,"17","2021.04.13","4ERC",4728.00000000023,"tapping",6,"left",0.39,100,455,"left",24,225,1,"true",7,7,3502,77,3073,12,4823.00000000023,82,"high","3","5",919.000000000233,"no box","high",40,"hard",88,"exp 3 got 5","POSITIVE",9,"0",0,0.664204944098977,1.53654963976134,0.721290364487
103,"19","2021.04.13","5RCE",1432,"tapping",6,"left",0.39,100,1186,"left",12,225,1,"true",7,7,2406,99,2719,74,2953,21,"high","3","5",1007,"no box","high",40,"hard",26,"exp 3 got 5","POSITIVE",6,"0",0,1.08634575339349,-0.98992158612526,-1.43944242626973
103,"2","2021.04.06","1CER",2232,"tapping",6,"left",0.39,100,348,"left",15,225,1,"true",7,7,1714,61,2999,64,2319,54,"high","3","5",686.999999999767,"box","high",40,"hard",36,"exp 3 got 5","POSITIVE",6,"1",100,0.14093443902193,-0.896680790217341,-0.490704185664022
103,"20","2021.04.13","5RCE",5000,"tapping",6,"left",0.39,100,718,"left",25,225,1,"true",7,7,5039,62,2799,25,2208,80,"high","3","5",1319,"no box","high",40,"hard",75,"exp 3 got 5","POSITIVE",9,"0",0,0.634141468738919,1.00803050602912,0.9805236809507
103,"21","2021.04.14","6REC",2288,"tapping",6,"left",0.39,100,708,"left",15,225,1,"true",7,7,2638.00000000047,93,2590,15,1806.00000000047,96,"high","3","5",1726,"box","high",40,"hard",85,"exp 3 got 5","POSITIVE",6,"1",100,1.40192923758875,0.795614578666731,1.30300411272917
103,"22","2021.04.14","6REC",2695,"tapping",6,"left",0.39,100,1459,"left",17,225,1,"true",7,7,2782,70,1910,21,1840,75,"high","3","5",767,"box","high",40,"hard",79,"exp 3 got 5","POSITIVE",7,"1",100,1.37162870405455,1.5196680177555,0.0349812161545376
103,"23","2021.04.14","6REC",3088,"tapping",6,"left",0.39,100,1385,"left",18,225,1,"true",7,7,3783,69,3071,18,7048,52,"high","3","5",831,"no box","high",40,"hard",82,"exp 3 got 5","POSITIVE",6,"0",0,0.39301774603587,1.25685685376089,-0.484685620008202
103,"25","2021.04.15","5RCE",2560.00000000093,"tapping",6,"left",0.39,100,1602,"left",16,225,1,"true",7,7,3375,72,4358.99999999907,11,1664,62,"high","3","5",935,"no box","high",40,"hard",89,"exp 3 got 5","POSITIVE",7,"0",0,0.920382730093751,0.954385659798021,-0.186117352877394
103,"27","2021.04.15","6REC",3120,"tapping",6,"left",0.39,100,671,"left",18,225,1,"true",7,7,2862.99999999953,81,3687,35,2193,65,"high","3","5",851,"box","high",40,"hard",65,"exp 3 got 5","POSITIVE",7,"1",100,0.979653530669689,-0.121826977035935,0.917805610249173
103,"3","2021.04.07","2CRE",3672,"tapping",6,"left",0.39,100,384,"left",20,225,1,"true",7,7,2256,99,2669.99999999977,34,2487,100,"high","3","5",2127.00000000023,"box","high",40,"hard",66,"exp 3 got 5","POSITIVE",6,"1",100,0.862495199696963,0.384243849281015,0.940011554913824
103,"31","2021.04.19","2CRE",1695,"tapping",6,"left",0.39,0,635,"right",13,225,1,"true",7,7,3009,98,3479,58,3487,79,"high","3","5",959,"box","high",40,"hard",42,"exp 3 got 5","POSITIVE",6,"1",100,0.711848343086213,0.0818617478950101,1.03885294702356
103,"32","2021.04.20","3ECR",2480,"tapping",6,"left",0.39,100,1557,"left",16,225,1,"true",7,7,2523.99999999953,39,3841,41,1407,85,"high","3","5",550.999999999534,"no box","high",40,"hard",59,"exp 3 got 5","POSITIVE",8,"0",0,-0.303819283130628,0.168707593273813,0.394608490075683
103,"34","2021.04.20","6REC",3392.00000000047,"tapping",6,"left",0.39,0,892,"right",19,225,1,"true",7,7,2279,60,2175,4,1792,26,"high","3","5",2319,"no box","high",40,"hard",96,"exp 3 got 5","POSITIVE",8,"0",0,0.587226332276827,2.71725092543171,-2.35457253218844
103,"35","2021.04.21","1CER",2208,"tapping",6,"left",0.39,100,1701,"left",15,225,1,"true",7,7,1735,74,1215,26,1415,91,"high","3","5",502,"box","high",40,"hard",74,"exp 3 got 5","POSITIVE",8,"1",100,0.40924753969012,0.89718760893705,1.13312939753933
103,"36","2021.04.21","4ERC",2249,"tapping",6,"left",0.39,100,382,"left",15,225,1,"true",7,7,3183,79,3527,31,2695,67,"high","3","5",1895,"box","high",40,"hard",69,"exp 3 got 5","POSITIVE",6,"1",100,2.09400181054136,1.09992766478122,0.954348984240914
103,"37","2021.04.21","5RCE",2496,"tapping",6,"left",0.39,100,293,"left",16,225,1,"true",7,7,2254.99999999988,72,2743,62,2218,78,"high","3","5",1325.99999999988,"box","high",40,"hard",38,"exp 3 got 5","POSITIVE",7,"1",100,0.969877570036676,-1.20591745619057,1.32761333581475
103,"38","2021.04.21","6REC",2280,"tapping",6,"left",0.39,100,1000,"left",15,225,1,"true",7,7,2052,71,2117.99999999953,12,1984,73,"high","3","5",1423,"box","high",40,"hard",88,"exp 3 got 5","POSITIVE",8,"1",100,0.507554064352162,0.984294700074458,0.00251076886916978
103,"39","2021.04.22","2CRE",2312,"tapping",6,"left",0.39,100,565,"left",15,225,1,"true",7,7,3534.99999999977,33,3526,100,4534,59,"high","3","5",1909.99999999953,"box","high",40,"hard",0,"exp 3 got 5","POSITIVE",6,"1",100,-1.08883388518608,-1.49733296926321,3.21684154676159
103,"4","2021.04.07","2CRE",4784,"tapping",6,"left",0.39,100,1493,"left",24,225,1,"true",7,7,2607,76,3838,39,2798,72,"high","3","5",1126,"box","high",40,"hard",61,"exp 3 got 5","POSITIVE",8,"1",100,0.12275083028129,0.97522484425322,0.933532825559407
103,"41","2021.04.22","4ERC",3960,"tapping",6,"left",0.39,100,1033,"left",21,225,1,"true",7,7,2302,82,2895,5,2462,84,"high","3","5",1718,"box","high",40,"hard",95,"exp 3 got 5","POSITIVE",9,"1",100,0.148954780015572,2.59446498948269,1.09157644593022
103,"43","2021.04.26","1CER",3968,"tapping",6,"left",0.39,0,339,"right",21,225,1,"true",7,7,5263,84,3431,0,3327,68,"high","3","5",4870,"box","high",40,"hard",100,"exp 3 got 5","POSITIVE",10,"1",100,1.00188191781801,1.69882907298772,1.11131673847498
103,"44","2021.04.26","3ECR",2351,"tapping",6,"left",0.39,100,825,"left",15,225,1,"true",7,7,2303,85,4071.99999999953,62,3238.00000000047,82,"high","3","5",1758,"no box","high",40,"hard",38,"exp 3 got 5","POSITIVE",6,"0",0,0.465527194947432,-0.384065829329578,1.36731479602345
103,"45","2021.04.26","6REC",3272,"tapping",6,"left",0.39,100,1531,"left",17,225,1,"true",7,7,2086,93,3574,48,2512,64,"high","3","5",702,"box","high",40,"hard",52,"exp 3 got 5","POSITIVE",8,"1",100,1.41131012409634,0.0164452556987912,0.544132359289257
103,"46","2021.04.29","4ERC",2008,"tapping",6,"left",0.39,100,653,"left",14,225,1,"true",7,7,3910,81,2984,79,2454.00000000047,91,"high","3","5",782.999999999534,"box","high",40,"hard",21,"exp 3 got 5","POSITIVE",6,"1",100,0.68660471119092,-1.43176036794868,1.08305763930155
103,"47","2021.04.29","6REC",4190.99999999953,"tapping",6,"left",0.39,0,1340,"right",22,225,1,"true",7,7,1910,70,2086.00000000047,61,3704,91,"high","3","5",710.999999999534,"no box","high",40,"hard",39,"exp 3 got 5","POSITIVE",8,"0",0,-0.270350200629113,0.596122452056385,-0.291802787399885
103,"48","2021.04.29","1CER",2536,"tapping",6,"left",0.39,100,1060,"left",16,225,1,"true",7,7,1994,60,1373.00000000047,31,1399,54,"high","3","5",615,"no box","high",40,"hard",69,"exp 3 got 5","POSITIVE",7,"0",0,-1.07030900817196,0.180373501971158,-0.100363804322628
103,"49","2021.04.29","5RCE",3399,"tapping",6,"left",0.39,100,1504,"left",19,225,1,"true",7,7,3135,90,1727,87,3504,47,"high","3","5",679,"box","high",40,"hard",13,"exp 3 got 5","POSITIVE",6,"1",100,1.08987218133629,-1.24293890493415,-0.728221082639596
103,"5","2021.04.08","1CER",3633,"tapping",6,"left",0.39,100,1783,"left",20,225,1,"true",7,7,2352,74,1822,59,2102,41,"high","3","5",646,"no box","high",40,"hard",41,"exp 3 got 5","POSITIVE",6,"0",0,0.572042660909111,-1.35405222903406,-1.97367602495632
103,"50","2021.04.30","4ERC",1632,"tapping",6,"left",0.39,100,1783,"left",13,225,1,"true",7,7,1694.99999999907,19,5488,23,2255,100,"high","3","5",863,"box","high",40,"hard",77,"exp 3 got 5","POSITIVE",6,"1",100,-0.360530333903218,0.428713665305462,1.03900315041971
103,"51","2021.04.30","3ECR",2560,"tapping",6,"left",0.39,100,491,"left",16,225,1,"true",7,7,2871,86,3425,40,2567.00000000047,35,"high","3","5",1114,"no box","high",40,"hard",60,"exp 3 got 5","POSITIVE",6,"0",0,1.34519931555419,0.0433545166862769,-1.91752975305273
103,"52","2021.04.30","2CRE",3984.00000000093,"tapping",6,"left",0.39,100,1486,"left",20,225,1,"true",7,7,1505,67,4486.99999999907,5,2967,28,"high","3","5",1997,"no box","high",40,"hard",95,"exp 3 got 5","POSITIVE",9,"0",0,0.15914290848409,1.30534443902851,-2.60663642211727
103,"53","2021.05.14","1CER",3856,"tapping",6,"left",0.39,0,292,"right",21,225,1,"true",7,7,3778.00000000023,40,4855,7,12663,63,"high","3","5",2647,"box","high",40,"hard",93,"exp 3 got 5","POSITIVE",10,"1",100,-0.562961947397713,1.87209309981268,0.453575557454462
103,"54","2021.05.14","6REC",3409,"tapping",6,"left",0.39,100,1883,"left",19,225,1,"true",7,7,1623,60,1532,44,2776,55,"high","3","5",1095,"no box","high",40,"hard",56,"exp 3 got 5","POSITIVE",7,"0",0,0.657298150731692,0.359500520164777,0.309777637198202
103,"56","2021.05.14","2CRE",4783,"tapping",6,"left",0.39,100,1475,"left",24,225,1,"true",7,7,2153,70,2849,22,4286.99999999907,83,"high","3","5",2030,"box","high",40,"hard",78,"exp 3 got 5","POSITIVE",10,"1",100,0.387767022296563,1.7070502800473,1.2197379656701
103,"57","2021.05.17","3ECR",1672,"tapping",6,"left",0.39,100,646,"left",13,225,1,"true",7,7,1855,99,3037,28,2406.99999999953,62,"high","3","5",2446,"no box","high",40,"hard",72,"exp 3 got 5","POSITIVE",6,"0",0,0.620717023076256,0.870436008584456,0.237905863669535
103,"59","2021.05.17","5RCE",2024,"tapping",6,"left",0.39,100,988,"left",14,225,1,"true",7,7,2126.99999999953,25,2623,30,1721,62,"high","3","5",807,"no box","high",40,"hard",70,"exp 3 got 5","POSITIVE",6,"0",0,-1.11065935125206,1.00288966207625,1.09375957320418
103,"6","2021.04.08","2CRE",1760,"tapping",6,"left",0.39,100,879,"left",13,225,1,"true",7,7,3576,70,5870.99999999953,42,1594.99999999953,59,"high","3","5",1167,"no box","high",40,"hard",58,"exp 3 got 5","POSITIVE",6,"0",0,0.307984752421801,-0.239986698448653,0.0545816018809075
103,"60","2021.05.17","6REC",3896,"tapping",6,"left",0.39,100,691,"left",21,225,1,"true",7,7,2831,62,2662.00000000023,33,2681.00000000023,69,"high","3","5",559,"no box","high",40,"hard",67,"exp 3 got 5","POSITIVE",8,"0",0,0.266125126493073,0.697984468620572,-1.88183688861164
103,"7","2021.04.08","3ECR",2007,"tapping",6,"left",0.39,100,1667,"left",14,225,1,"true",7,7,11981,48,6137,49,2751,49,"high","3","5",679,"box","high",40,"hard",51,"exp 3 got 5","POSITIVE",6,"1",100,0.482663238124421,0.324859283442377,0.654037181551898
103,"8","2021.04.09","3ECR",3920,"tapping",6,"left",0.39,0,682,"right",21,225,1,"true",7,7,2295.00000000023,14,3032.00000000023,15,2918.99999999977,61,"high","3","5",1294.99999999953,"no box","high",40,"hard",85,"exp 3 got 5","POSITIVE",8,"0",0,-1.69173072974184,1.66073587567207,0.217667973165046
103,"9","2021.04.09","3ECR",2776,"tapping",6,"left",0.39,100,1161,"left",17,225,1,"true",7,7,3342,80,4663.99999999953,0,1786,84,"high","3","5",1166,"box","high",40,"hard",100,"exp 3 got 5","POSITIVE",6,"1",100,0.508634334055231,1.20909549006079,0.689893350646252
104,"1","2021.04.06","1CER",3440.00000000093,"tapping",6,"left",0.39,100,1450,"left",19,225,1,"true",7,7,3385,73,2934,30,2550,78,"high","3","5",1118.00000000093,"box","high",40,"hard",70,"exp 3 got 5","POSITIVE",7,"1",100,0.526095128927492,0.861323164696452,0.295798658342076
104,"10","2021.04.12","1CER",3160.00000000023,"tapping",6,"left",0.39,100,971,"left",18,225,1,"true",7,7,2880,79,3654,20,2654,79,"high","3","5",1134,"box","high",40,"hard",80,"exp 3 got 5","POSITIVE",8,"1",100,0.238730366566639,0.723001432937868,0.701588890894063
104,"11","2021.04.09","2CRE",2265.00000000047,"tapping",6,"left",0.39,100,1472,"left",15,225,1,"true",7,7,2854,62,5389.99999999953,39,2567,58,"high","3","5",1391,"no box","high",40,"hard",61,"exp 3 got 5","POSITIVE",6,"0",0,0.38867319469363,0.171640465039652,-1.35591660605095
104,"12","2021.04.09","3ECR",3080,"tapping",6,"left",0.39,0,321,"right",18,225,1,"true",7,7,4916,5,14577,24,4078.99999999977,20,"high","3","5",911,"no box","high",40,"hard",76,"exp 3 got 5","POSITIVE",7,"0",0,-1.73266843343277,0.930078607974304,-1.21767620468255
104,"13","2021.04.12","3ECR",4230.99999999907,"tapping",6,"left",0.39,100,1739,"left",22,225,1,"true",7,7,1750,59,5071,0,1822,66,"high","3","5",886,"no box","high",40,"hard",100,"exp 3 got 5","POSITIVE",8,"0",0,-0.408830379790903,0.961864118300619,0.429026270750504
104,"14","2021.04.12","2CRE",3616,"tapping",6,"left",0.39,100,1755,"left",20,225,1,"true",7,7,3207.99999999953,73,1847,37,4383,69,"high","3","5",1815,"no box","high",40,"hard",63,"exp 3 got 5","POSITIVE",8,"0",0,0.96527402719177,0.0283421273734391,-0.25514558033582
104,"17","2021.04.13","4ERC",3032,"tapping",6,"left",0.39,100,1051,"left",18,225,1,"true",7,7,9191,66,4024,31,4191,71,"high","3","5",1231,"no box","high",40,"hard",69,"exp 3 got 5","POSITIVE",6,"0",0,0.00968632210144375,0.753091523045081,-0.0488458486108576
104,"18","2021.04.13","4ERC",3015,"tapping",6,"left",0.39,0,1647,"right",18,225,1,"true",7,7,4375,72,3360,33,2415.00000000093,56,"high","3","5",927,"no box","high",40,"hard",67,"exp 3 got 5","POSITIVE",7,"0",0,-0.139350404756815,0.835176534321904,-0.926984121371038
104,"19","2021.04.13","5RCE",1664.00000000047,"tapping",6,"left",0.39,100,1105,"left",13,225,1,"true",7,7,2846,99,3381.99999999953,68,2288,22,"high","3","5",1982,"no box","high",40,"hard",32,"exp 3 got 5","POSITIVE",7,"0",0,1.08634575339349,-0.730688757916779,-1.40492706723234
104,"2","2021.04.06","1CER",2263,"tapping",6,"left",0.39,100,483,"left",15,225,1,"true",7,7,2810,56,2278,38,1615,59,"high","3","5",799,"box","high",40,"hard",62,"exp 3 got 5","POSITIVE",6,"1",100,-0.314524418792843,0.623777941020759,0.159478860340807
104,"21","2021.04.14","6REC",2808,"tapping",6,"left",0.39,100,1692,"left",17,225,1,"true",7,7,2302,63,2126,5,2303,88,"high","3","5",758,"no box","high",40,"hard",95,"exp 3 got 5","POSITIVE",7,"0",0,0.0246757909194909,1.27328186792256,1.00276194093919
104,"22","2021.04.14","6REC",2832,"tapping",6,"left",0.39,100,972,"left",17,225,1,"true",7,7,1439.00000000047,74,4358,26,2449,76,"high","3","5",1303,"box","high",40,"hard",74,"exp 3 got 5","POSITIVE",7,"1",100,1.71142469070001,1.20332238160115,0.126515398425579
104,"23","2021.04.14","6REC",4512,"tapping",6,"left",0.39,100,1746,"left",23,225,1,"true",7,7,1911.00000000047,70,2862,16,2888.99999999953,51,"high","3","5",1991,"no box","high",40,"hard",84,"exp 3 got 5","POSITIVE",8,"0",0,0.437411777149557,1.35743498386473,-0.563345816095452
104,"25","2021.04.15","5RCE",2791.99999999907,"tapping",6,"left",0.39,100,933,"left",17,225,1,"true",7,7,6151,46,3367,1,4728,70,"high","3","5",1997.99999999907,"box","high",40,"hard",99,"exp 3 got 5","POSITIVE",8,"1",100,-0.438496629266095,1.37299895609564,0.488359207977436
104,"27","2021.04.15","6REC",2800,"tapping",6,"left",0.39,0,1033,"right",17,225,1,"true",7,7,3526.99999999953,63,2799,24,3152,63,"high","3","5",1239,"box","high",40,"hard",76,"exp 3 got 5","POSITIVE",7,"1",100,0.127913627095855,0.554769100639209,0.735538000270157
104,"3","2021.04.07","2CRE",4431,"tapping",6,"left",0.39,0,1170,"right",23,225,1,"true",7,7,1752,95,3413.99999999953,29,1503.00000000047,81,"high","3","5",1591,"box","high",40,"hard",71,"exp 3 got 5","POSITIVE",9,"1",100,0.724046946383351,0.6439154917175,0.290069953630895
104,"31","2021.04.19","2CRE",1968,"tapping",6,"left",0.39,100,1159,"left",14,225,1,"true",7,7,1184,98,3150,42,1190.99999999953,65,"high","3","5",390,"box","high",40,"hard",58,"exp 3 got 5","POSITIVE",7,"1",100,0.711848343086213,0.62059201681847,-0.286335322528134
104,"32","2021.04.20","3ECR",2000,"tapping",6,"left",0.39,100,1195,"left",14,225,1,"true",7,7,3503,35,3800,32,1999,74,"high","3","5",703,"no box","high",40,"hard",68,"exp 3 got 5","POSITIVE",7,"0",0,-0.422022530062908,0.581869046189273,-0.593316036998573
104,"34","2021.04.20","6REC",2528,"tapping",6,"left",0.39,100,729,"left",16,225,1,"true",7,7,2054.99999999977,42,2287.00000000023,16,2329.00000000023,58,"high","3","5",935,"no box","high",40,"hard",84,"exp 3 got 5","POSITIVE",6,"0",0,-0.771660314586718,1.97027285458663,0.114773811463241
104,"35","2021.04.21","1CER",1664.00000000093,"tapping",6,"left",0.39,100,1647,"left",13,225,1,"true",7,7,1817,69,3631,39,1935,82,"high","3","5",814,"box","high",40,"hard",61,"exp 3 got 5","POSITIVE",6,"1",100,0.210100318429721,0.284732660926199,0.764215463002444
104,"36","2021.04.21","4ERC",2561,"tapping",6,"left",0.39,0,1755,"right",16,225,1,"true",7,7,2910,42,2615,44,2054,70,"high","3","5",918,"no box","high",40,"hard",56,"exp 3 got 5","POSITIVE",7,"0",0,-0.946228360094085,-0.0829810152930686,1.11046162672477
104,"37","2021.04.21","5RCE",2656.00000000047,"tapping",6,"left",0.39,100,1215,"left",16,225,1,"true",7,7,2743,27,3215.00000000047,40,2649,71,"high","3","5",903.000000000466,"no box","high",40,"hard",60,"exp 3 got 5","POSITIVE",7,"0",0,-0.608115455812469,0.0736213343217687,-0.454353107645337
104,"38","2021.04.21","6REC",1712,"tapping",6,"left",0.39,100,1723,"left",13,225,1,"true",7,7,2815.00000000047,100,1486,9,1912,69,"high","3","5",1039,"box","high",40,"hard",91,"exp 3 got 5","POSITIVE",6,"1",100,1.7097239768555,1.12358168593405,-0.399212250197903
104,"39","2021.04.22","2CRE",3983,"tapping",6,"left",0.39,0,402,"right",21,225,1,"true",7,7,4264.00000000023,35,11847,48,4086.99999999977,57,"high","3","5",1911,"no box","high",40,"hard",52,"exp 3 got 5","POSITIVE",9,"0",0,-0.916141029580508,1.20099941736892,2.14680429585135
104,"41","2021.04.22","4ERC",3143,"tapping",6,"left",0.39,100,816,"left",18,225,1,"true",7,7,2566.00000000023,77,2330,34,1415.00000000023,61,"high","3","5",951.000000000233,"no box","high",40,"hard",66,"exp 3 got 5","POSITIVE",7,"0",0,-0.266296854919924,1.32821959016405,-0.81227386216236
104,"43","2021.04.26","1CER",2032.00000000047,"tapping",6,"left",0.39,0,1025,"right",14,225,1,"true",7,7,1864,76,2662,21,3270,61,"high","3","5",1222,"no box","high",40,"hard",79,"exp 3 got 5","POSITIVE",6,"0",0,0.734431285479682,0.825461415074295,0.789811032811014
104,"44","2021.04.26","3ECR",1944,"tapping",6,"left",0.39,100,545,"left",14,225,1,"true",7,7,2663,93,4705,47,3735,80,"high","3","5",4454.00000000023,"no box","high",40,"hard",53,"exp 3 got 5","POSITIVE",6,"0",0,0.839606263233225,0.635235419842986,1.18728501454703
104,"45","2021.04.26","6REC",2552.00000000047,"tapping",6,"left",0.39,100,1115,"left",14,225,1,"true",7,7,7390.00000000047,43,5822,64,2258,73,"high","3","5",1462,"box","high",40,"hard",36,"exp 3 got 5","POSITIVE",6,"1",100,-0.739334975877955,-0.893048885556106,1.08076461714103
104,"46","2021.04.29","4ERC",1745,"tapping",6,"left",0.39,100,961,"left",13,225,1,"true",7,7,2390.00000000047,82,2903,45,2382,87,"high","3","5",646,"box","high",40,"hard",55,"exp 3 got 5","POSITIVE",6,"1",100,0.726192730574901,0.256314274799656,0.929602494481316
104,"47","2021.04.29","6REC",4526.99999999953,"tapping",6,"left",0.39,0,762,"right",23,225,1,"true",7,7,1911,63,2462,44,2824,100,"high","3","5",1215.00000000047,"no box","high",40,"hard",56,"exp 3 got 5","POSITIVE",8,"0",0,-0.582105386940162,1.30689640037129,0.832467483786293
104,"48","2021.04.29","1CER",3351,"tapping",6,"left",0.39,100,888,"left",19,225,1,"true",7,7,1544,59,1452,43,1215,53,"high","3","5",511.000000000466,"no box","high",40,"hard",57,"exp 3 got 5","POSITIVE",9,"0",0,-1.15556909449428,-0.411971836687996,-0.148429602175934
104,"49","2021.04.29","5RCE",3967.99999999953,"tapping",6,"left",0.39,100,1405,"left",21,225,1,"true",7,7,1434,86,2047,82,9007,45,"high","3","5",847,"box","high",40,"hard",18,"exp 3 got 5","POSITIVE",7,"1",100,0.913802362057405,-1.02857996023662,-0.806089034162221
104,"5","2021.04.08","1CER",4791.99999999907,"tapping",6,"left",0.39,100,1855,"left",24,225,1,"true",7,7,3167,67,3582,35,1910,72,"high","3","5",902,"no box","high",40,"hard",65,"exp 3 got 5","POSITIVE",8,"0",0,0.289445656402026,-0.199693715985041,-0.227344944770708
104,"51","2021.04.30","3ECR",3880.00000000093,"tapping",6,"left",0.39,100,1647,"left",21,225,1,"true",7,7,1519,74,2582.99999999907,1,2679,71,"high","3","5",679,"no box","high",40,"hard",99,"exp 3 got 5","POSITIVE",7,"0",0,0.84187306830897,2.27652113090393,0.678320355834124
104,"52","2021.04.30","2CRE",2487,"tapping",6,"left",0.39,100,1242,"left",16,225,1,"true",7,7,2856,79,3486,83,1910,74,"high","3","5",710.999999999534,"no box","high",40,"hard",17,"exp 3 got 5","POSITIVE",7,"0",0,0.569473542791718,-1.49259571528044,-0.00923331702657311
104,"53","2021.05.14","1CER",2248,"tapping",6,"left",0.39,100,1168,"left",15,225,1,"true",7,7,3920,95,9151,33,4343,80,"high","3","5",1782.00000000093,"box","high",40,"hard",67,"exp 3 got 5","POSITIVE",6,"1",100,1.49515303909203,0.457347247342024,1.42048345215501
104,"54","2021.05.14","6REC",3911.00000000093,"tapping",6,"left",0.39,100,1576,"left",21,225,1,"true",7,7,13215,55,1903,44,10183.9999999991,73,"high","3","5",943,"no box","high",40,"hard",56,"exp 3 got 5","POSITIVE",8,"0",0,0.278576478423022,0.359500520164777,1.21580121731334
104,"56","2021.05.14","2CRE",2311,"tapping",6,"left",0.39,100,888,"left",15,225,1,"true",7,7,2673,74,4637.99999999953,46,5455,84,"high","3","5",1054,"box","high",40,"hard",54,"exp 3 got 5","POSITIVE",6,"1",100,0.586033986740371,0.421021369518393,1.26439586877185
104,"57","2021.05.17","3ECR",1679,"tapping",6,"left",0.39,100,1215,"left",13,225,1,"true",7,7,1790,85,1778,35,1238.00000000047,34,"high","3","5",686,"no box","high",40,"hard",65,"exp 3 got 5","POSITIVE",6,"0",0,0.0888866777045198,0.690987122117862,-0.607893903932364
104,"59","2021.05.17","5RCE",3152,"tapping",6,"left",0.39,100,1412,"left",18,225,1,"true",7,7,4383,62,2551,41,1864,52,"high","3","5",751,"box","high",40,"hard",59,"exp 3 got 5","POSITIVE",8,"1",100,0.47906583235824,0.126046241681714,0.390659807383894
104,"6","2021.04.08","2CRE",2007,"tapping",6,"left",0.39,100,735,"left",14,225,1,"true",7,7,2224.99999999953,81,4043,35,3175,59,"high","3","5",1303,"no box","high",40,"hard",65,"exp 3 got 5","POSITIVE",6,"0",0,0.914308202379709,0.159396811599625,0.0545816018809075
104,"60","2021.05.17","6REC",3944,"tapping",6,"left",0.39,100,357,"left",21,225,1,"true",7,7,4151.00000000023,36,5031,33,2073,69,"high","3","5",943,"no box","high",40,"hard",67,"exp 3 got 5","POSITIVE",8,"0",0,-1.36133237782995,0.697984468620572,-1.88183688861164
104,"7","2021.04.08","3ECR",1984,"tapping",6,"left",0.39,100,1378,"left",14,225,1,"true",7,7,4471,32,11696,67,6815,46,"high","3","5",1543,"no box","high",40,"hard",33,"exp 3 got 5","POSITIVE",6,"0",0,-0.692996028857994,-1.36699376595011,0.346556430185678
104,"8","2021.04.09","3ECR",2239,"tapping",6,"left",0.39,100,248,"left",15,225,1,"true",7,7,2454.99999999988,43,4425,53,2463,51,"high","3","5",1199.00000000012,"no box","high",40,"hard",47,"exp 3 got 5","POSITIVE",6,"0",0,0.039805428935102,-0.183327986275489,-0.427742877498754
104,"9","2021.04.09","3ECR",4393,"tapping",6,"left",0.39,0,1757,"right",22,225,1,"true",7,7,4702.00000000093,86,6798,22,2018,78,"high","3","5",702,"box","high",40,"hard",78,"exp 3 got 5","POSITIVE",8,"1",100,0.671383138050595,0.603378058963214,-0.0862366688307822
105,"1","2021.04.06","1CER",3496,"tapping",6,"left",0.4,100,1748,"left",20,235,1,"true",7,7,2640,79,2150,42,3999,70,"high","3","5",1278,"box","high",40,"hard",58,"exp 3 got 5","POSITIVE",7,"1",100,0.82944245953471,0.166897088388115,-0.335848766821661
105,"10","2021.04.12","1CER",2176,"tapping",6,"left",0.4,100,1423,"left",15,235,1,"true",7,7,3087.99999999953,64,1438,35,1526,72,"high","3","5",813.999999999534,"box","high",40,"hard",65,"exp 3 got 5","POSITIVE",6,"1",100,-0.545528482278313,-0.984284128999572,0.05248794694968
105,"11","2021.04.09","2CRE",1887,"tapping",6,"left",0.4,0,2240,"right",14,235,1,"true",7,7,3248,55,2621.99999999907,38,2854,81,"high","3","5",1222,"no box","high",40,"hard",62,"exp 3 got 5","POSITIVE",6,"0",0,0.105562418715875,0.233665087633526,0.974246471171009
105,"12","2021.04.09","3ECR",2720.00000000047,"tapping",6,"left",0.4,100,1350,"left",17,235,1,"true",7,7,2470,71,2846,36,4126,75,"high","3","5",958,"box","high",40,"hard",64,"exp 3 got 5","POSITIVE",6,"1",100,0.944449535758775,0.564879914532842,0.938230263628714
105,"13","2021.04.12","3ECR",3473,"tapping",6,"left",0.4,100,772,"left",20,235,1,"true",7,7,2374,63,2622,23,1606,61,"high","3","5",1039,"box","high",40,"hard",77,"exp 3 got 5","POSITIVE",7,"1",100,-0.0572628870716898,-1.10627997742224,-0.361916016107968
105,"14","2021.04.12","2CRE",3480,"tapping",6,"left",0.4,100,617,"left",20,235,1,"true",7,7,2928,43,3062,40,3390,61,"high","3","5",1415,"no box","high",40,"hard",60,"exp 3 got 5","POSITIVE",8,"0",0,-0.625062743364014,-0.127869132801098,-1.38673861031644
105,"16","2021.04.13","4ERC",4560,"tapping",6,"left",0.4,100,1466,"left",24,235,1,"true",7,7,3062.99999999953,95,3216,22,3023,80,"high","3","5",687,"box","high",40,"hard",78,"exp 3 got 5","POSITIVE",8,"1",100,0.985632894026059,1.4387763435227,0.412768571516031
105,"17","2021.04.13","4ERC",2337.00000000093,"tapping",6,"left",0.4,100,1891,"left",16,235,1,"true",7,7,1463,75,2256,33,1551,94,"high","3","5",1311,"no box","high",40,"hard",67,"exp 3 got 5","POSITIVE",6,"0",0,0.545201558281244,0.670622247601265,1.56143896059375
105,"18","2021.04.13","4ERC",4256,"tapping",6,"left",0.4,100,1683,"left",21,235,1,"true",7,7,4439,90,2984,25,11711,56,"high","3","5",2013.99999999907,"box","high",40,"hard",75,"exp 3 got 5","POSITIVE",8,"1",100,0.733912131719226,1.11673036896479,-0.926984121371038
105,"19","2021.04.13","5RCE",1352.00000000047,"tapping",6,"left",0.4,100,1394,"left",12,235,1,"true",7,7,2782,96,1735,38,3512,26,"high","3","5",599,"no box","high",40,"hard",62,"exp 3 got 5","POSITIVE",6,"0",0,0.987095241160451,0.565475383125629,-1.26686563108281
105,"2","2021.04.06","1CER",2719.99999999953,"tapping",6,"left",0.4,0,1359,"right",17,235,1,"true",7,7,3728,57,2343,40,2079,62,"high","3","5",599.000000000466,"no box","high",40,"hard",60,"exp 3 got 5","POSITIVE",8,"0",0,-0.223432647229888,0.506819577079366,0.549588687943704
105,"21","2021.04.14","6REC",2713,"tapping",6,"left",0.4,100,798,"left",17,235,1,"true",7,7,3501.99999999953,94,2662,1,4103,80,"high","3","5",678,"no box","high",40,"hard",99,"exp 3 got 5","POSITIVE",7,"0",0,1.44783768581105,1.46434878362488,0.702519769149213
105,"22","2021.04.14","6REC",3704,"tapping",6,"left",0.4,100,917,"left",21,235,1,"true",7,7,3382,75,3766,33,4391,87,"high","3","5",1014.00000000047,"box","high",40,"hard",67,"exp 3 got 5","POSITIVE",10,"1",100,1.79637368736138,0.760438490985051,1.13339140340703
105,"23","2021.04.14","6REC",3520,"tapping",6,"left",0.4,100,852,"left",20,235,1,"true",7,7,1847,38,3319,54,4449,57,"high","3","5",831,"box","high",40,"hard",46,"exp 3 got 5","POSITIVE",6,"1",100,-0.983197218488406,-0.553549488108283,-0.0913846395719524
105,"24","2021.04.15","5RCE",2703.99999999953,"tapping",6,"left",0.4,100,816,"left",17,235,1,"true",7,7,4374,77,2743,71,2655.99999999953,51,"high","3","5",743.000000000466,"no box","high",40,"hard",29,"exp 3 got 5","POSITIVE",9,"0",0,1.341425173465,-1.94594397085694,-0.193127549492513
105,"25","2021.04.15","5RCE",3527.99999999953,"tapping",6,"left",0.4,0,644,"right",20,235,1,"true",7,7,3631,67,1855,22,9164,67,"high","3","5",1007,"no box","high",40,"hard",78,"exp 3 got 5","POSITIVE",10,"0",0,0.659059776370704,0.493911033870645,0.235430497656875
105,"27","2021.04.15","6REC",2384,"tapping",6,"left",0.4,100,1719,"left",16,235,1,"true",7,7,3911,87,2158,22,2000,61,"high","3","5",1175,"box","high",40,"hard",78,"exp 3 got 5","POSITIVE",6,"1",100,1.26356683186097,0.677786569307417,0.553270390291141
105,"3","2021.04.07","2CRE",3751,"tapping",6,"left",0.4,0,2091,"right",21,235,1,"true",7,7,1814.99999999907,79,1814,65,2181.99999999907,83,"high","3","5",621.999999999069,"box","high",40,"hard",35,"exp 3 got 5","POSITIVE",7,"1",100,0.170253933128902,-1.22572033382519,0.358484859029098
105,"31","2021.04.19","2CRE",1648,"tapping",6,"left",0.4,100,1286,"left",13,235,1,"true",7,7,1543.99999999953,99,3366,100,1343,66,"high","3","5",991,"box","high",40,"hard",0,"exp 3 got 5","POSITIVE",6,"1",100,0.742706033385263,-1.33230520802907,-0.191679017560156
105,"32","2021.04.20","3ECR",2761,"tapping",6,"left",0.4,100,1855,"left",17,235,1,"true",7,7,2670.99999999907,7,1743,21,1703.00000000093,94,"high","3","5",783,"no box","high",40,"hard",79,"exp 3 got 5","POSITIVE",9,"0",0,-1.24944525858887,1.08684415530817,1.20291037586371
105,"33","2021.04.20","4ERC",2424,"tapping",6,"left",0.4,100,1251,"left",16,235,1,"true",7,7,2358,95,4935,94,2631,94,"high","3","5",990,"box","high",40,"hard",6,"exp 3 got 5","POSITIVE",6,"1",100,0.749225404775124,-1.59559476884485,0.509001565111584
105,"34","2021.04.20","6REC",2456,"tapping",6,"left",0.4,100,2157,"left",16,235,1,"true",7,7,2239,42,1342,53,2152,40,"high","3","5",679,"no box","high",40,"hard",47,"exp 3 got 5","POSITIVE",6,"0",0,-0.771660314586718,-0.332909530519037,-1.27423350684083
105,"35","2021.04.21","1CER",1872,"tapping",6,"left",0.4,100,1259,"left",14,235,1,"true",7,7,5656,29,4158,66,1343,87,"high","3","5",3326,"no box","high",40,"hard",34,"exp 3 got 5","POSITIVE",7,"0",0,-1.38307745165347,-0.987289154173261,0.969167648856267
105,"36","2021.04.21","4ERC",2896,"tapping",6,"left",0.4,100,852,"left",18,235,1,"true",7,7,2030,70,3208,35,1923,71,"high","3","5",799,"box","high",40,"hard",65,"exp 3 got 5","POSITIVE",8,"1",100,1.35448636363004,0.735955763219902,1.16249917421939
105,"37","2021.04.21","5RCE",2416,"tapping",6,"left",0.4,100,1341,"left",16,235,1,"true",7,7,2815,67,2806.99999999953,43,2368,72,"high","3","5",1031,"box","high",40,"hard",57,"exp 3 got 5","POSITIVE",7,"1",100,0.794545011608993,-0.100861228020823,-0.199786472865324
105,"38","2021.04.21","6REC",1656,"tapping",6,"left",0.4,100,2355,"left",13,235,1,"true",7,7,2614,78,4078,20,1880,71,"high","3","5",967,"box","high",40,"hard",80,"exp 3 got 5","POSITIVE",6,"1",100,0.797733008749519,0.61286273778221,-0.198350740664367
105,"39","2021.04.22","2CRE",2672.00000000047,"tapping",6,"left",0.4,100,601,"left",17,235,1,"true",7,7,3582.99999999953,36,3598,79,3310,55,"high","3","5",949,"no box","high",40,"hard",21,"exp 3 got 5","POSITIVE",7,"0",0,-0.829794601777722,-0.40762181312331,1.07676704494112
105,"41","2021.04.22","4ERC",2993,"tapping",6,"left",0.4,100,1177,"left",18,235,1,"true",7,7,1694,79,1959,70,1678,71,"high","3","5",806,"no box","high",40,"hard",30,"exp 3 got 5","POSITIVE",7,"0",0,-0.100196200945726,-0.243671250369438,0.0154871413561529
105,"43","2021.04.26","1CER",2448,"tapping",6,"left",0.4,0,592,"right",16,235,1,"true",7,7,1687.99999999953,97,3182,13,2470,64,"high","3","5",2143,"no box","high",40,"hard",87,"exp 3 got 5","POSITIVE",8,"0",0,1.43648919536778,1.15817290380322,0.927599192381283
105,"44","2021.04.26","3ECR",1888,"tapping",6,"left",0.4,100,184,"left",14,235,1,"true",7,7,3695,41,4352.00000000012,69,4014.99999999988,66,"high","3","5",2991.00000000012,"no box","high",40,"hard",31,"exp 3 got 5","POSITIVE",6,"0",0,-1.59190768062443,-0.859739745610108,-0.0729234557879175
105,"45","2021.04.26","6REC",1599,"tapping",6,"left",0.4,100,2010,"left",13,235,1,"true",7,7,2326.00000000093,72,3399,43,1944,81,"high","3","5",1030,"box","high",40,"hard",57,"exp 3 got 5","POSITIVE",6,"1",100,0.508039182107135,0.300662174840947,1.55777106856483
105,"46","2021.04.29","4ERC",1856,"tapping",6,"left",0.4,100,1340,"left",14,235,1,"true",7,7,1526,86,2095,30,2022,94,"high","3","5",725.999999999534,"box","high",40,"hard",70,"exp 3 got 5","POSITIVE",6,"1",100,0.884544808110825,1.00105308777687,1.19814899791672
105,"48","2021.04.29","1CER",2888,"tapping",6,"left",0.4,100,1349,"left",18,235,1,"true",7,7,1412,96,1846,1,1127,84,"high","3","5",815,"box","high",40,"hard",99,"exp 3 got 5","POSITIVE",8,"1",100,1.9990540994314,1.66123684861904,1.34161013127657
105,"49","2021.04.29","5RCE",5000,"tapping",6,"left",0.4,100,528,"left",26,235,1,"true",7,7,3191,40,3119,8,2881,94,"high","3","5",1303,"no box","high",40,"hard",92,"exp 3 got 5","POSITIVE",9,"0",0,-1.11100055964975,2.1439324212868,1.10167577814211
105,"5","2021.04.08","1CER",3496,"tapping",6,"left",0.4,100,1448,"left",20,235,1,"true",7,7,2472.00000000093,16,2838,0,1966.00000000093,78,"high","3","5",1782,"no box","high",40,"hard",100,"exp 3 got 5","POSITIVE",6,"0",0,-1.7694753764353,1.48374578221144,0.110654619136185
105,"50","2021.04.30","4ERC",2464,"tapping",6,"left",0.4,100,1295,"left",16,235,1,"true",7,7,1855,15,2177,40,1815,100,"high","3","5",1151,"box","high",40,"hard",60,"exp 3 got 5","POSITIVE",6,"1",100,-0.623994808678647,-0.835893767513391,1.03900315041971
105,"51","2021.04.30","3ECR",4872,"tapping",6,"left",0.4,100,1719,"left",25,235,1,"true",7,7,2063,78,2175.99999999907,30,1678.99999999907,66,"high","3","5",767,"box","high",40,"hard",70,"exp 3 got 5","POSITIVE",9,"1",100,1.00964848405738,0.615961340844649,0.317785618488728
105,"52","2021.04.30","2CRE",2408,"tapping",6,"left",0.4,100,754,"left",16,235,1,"true",7,7,1583,84,3047,20,2798,40,"high","3","5",1070,"box","high",40,"hard",80,"exp 3 got 5","POSITIVE",7,"1",100,0.740444640419897,0.767279024738327,-1.92905300339796
105,"53","2021.05.14","1CER",4247,"tapping",6,"left",0.4,0,1584,"right",23,235,1,"true",7,7,3766,59,4222.99999999907,6,4255,77,"high","3","5",542,"box","high",40,"hard",94,"exp 3 got 5","POSITIVE",10,"1",100,0.14802322975329,1.92650640183078,1.24985264720785
105,"54","2021.05.14","6REC",2984,"tapping",6,"left",0.4,100,1856,"left",18,235,1,"true",7,7,1990,64,5172,39,3256,60,"high","3","5",935.000000000931,"no box","high",40,"hard",61,"exp 3 got 5","POSITIVE",7,"0",0,0.960275488578628,0.726891312377066,0.561450853896851
105,"56","2021.05.14","2CRE",3161,"tapping",6,"left",0.4,100,942,"left",19,235,1,"true",7,7,1824.99999999953,68,4174,38,3699.00000000047,74,"high","3","5",950,"box","high",40,"hard",62,"exp 3 got 5","POSITIVE",8,"1",100,0.288633540074659,0.849697673028029,0.8178168377544
105,"57","2021.05.17","3ECR",1600,"tapping",6,"left",0.4,100,1657,"left",13,235,1,"true",7,7,1030.00000000093,87,1584,96,958,69,"high","3","5",630,"no box","high",40,"hard",4,"exp 3 got 5","POSITIVE",6,"0",0,0.164862441329054,-0.872781745662451,0.44935580557001
105,"59","2021.05.17","5RCE",2191,"tapping",6,"left",0.4,100,355,"left",15,235,1,"true",7,7,3687.00000000023,67,2599,44,4105,66,"high","3","5",1031,"box","high",40,"hard",56,"exp 3 got 5","POSITIVE",6,"1",100,0.693893559873145,-0.113092872971341,1.37499947953229
105,"6","2021.04.08","2CRE",2622.99999999907,"tapping",6,"left",0.4,100,1683,"left",17,235,1,"true",7,7,5719,69,1911,40,2223.00000000093,66,"high","3","5",1327,"no box","high",40,"hard",60,"exp 3 got 5","POSITIVE",8,"0",0,0.252864438789264,-0.125877124149145,0.547576715643944
105,"60","2021.05.17","6REC",4343,"tapping",6,"left",0.4,100,1622,"left",23,235,1,"true",7,7,1702,58,3062,18,2599.99999999953,75,"high","3","5",446,"no box","high",40,"hard",82,"exp 3 got 5","POSITIVE",9,"0",0,0.0157470489049154,1.47334215733043,0.220355607565768
105,"7","2021.04.08","3ECR",2698,"tapping",6,"left",0.4,100,1938,"left",17,235,1,"true",7,7,3063,53,6942,48,1503,51,"high","3","5",566,"box","high",40,"hard",52,"exp 3 got 5","POSITIVE",8,"1",100,0.850056759056426,0.418851119519737,0.859024349129379
105,"8","2021.04.09","3ECR",4791.99999999953,"tapping",6,"left",0.4,0,1034,"right",25,235,1,"true",7,7,1879,21,3055,27,1887,64,"high","3","5",582.999999999534,"no box","high",40,"hard",73,"exp 3 got 5","POSITIVE",10,"0",0,-1.27377372592327,1.07839991926758,0.411291228364187
105,"9","2021.04.09","3ECR",4248,"tapping",6,"left",0.4,0,809,"right",23,235,1,"true",7,7,1630,83,3350.99999999953,11,1790,80,"high","3","5",1070,"box","high",40,"hard",89,"exp 3 got 5","POSITIVE",9,"1",100,0.590008736052913,0.906236774512003,0.172473337661563
106,"1","2021.04.06","1CER",3760,"tapping",6,"left",0.4,100,1278,"left",21,235,1,"true",7,7,2265.00000000047,41,2397.99999999907,44,2415,65,"high","3","5",702.000000000466,"no box","high",40,"hard",56,"exp 3 got 5","POSITIVE",7,"0",0,-1.09175730097767,0.051159409003392,-0.730628407548997
106,"10","2021.04.12","1CER",1880,"tapping",6,"left",0.4,100,302,"left",14,235,1,"true",7,7,2048.99999999988,84,1966,33,1621.99999999988,62,"high","3","5",950,"no box","high",40,"hard",67,"exp 3 got 5","POSITIVE",6,"0",0,0.50014998284829,-0.75664605407458,-0.87479911582801
106,"11","2021.04.09","2CRE",2760,"tapping",6,"left",0.4,0,1427,"right",17,235,1,"true",7,7,2383,89,1854,39,2463,69,"high","3","5",3887,"no box","high",40,"hard",61,"exp 3 got 5","POSITIVE",7,"0",0,1.4806719020364,0.171640465039652,-0.241490786510014
